Folder: Nafion/Fits/X-Ray/Interface/1 Silicon-SiOx

Note: Fits/X-Ray/Interface/1 Silicon-SiOx/R1XR Silicon-SiOx-err.json
{
  "Interface interface": {
    "best": 2.6325171506129976,
    "index": 4,
    "integer": false,
    "label": "Interface interface",
    "mean": 2.6256157406664693,
    "median": 2.6226975515944764,
    "p68": [
      2.5929979343769216,
      2.6599346036131566
    ],
    "p68_range": [
      2.5929979343769216,
      2.6599346036131566
    ],
    "p95": [
      2.558910471201421,
      2.714043079970597
    ],
    "p95_range": [
      2.558910471201421,
      2.714043079970597
    ],
    "std": 0.035783092179449326
  },
  "Interface irho": {
    "best": 23.479044390700608,
    "index": 5,
    "integer": false,
    "label": "Interface irho",
    "mean": 22.532990130848088,
    "median": 22.547182263604807,
    "p68": [
      21.66162714621181,
      23.440431034631867
    ],
    "p68_range": [
      21.66162714621181,
      23.440431034631867
    ],
    "p95": [
      20.742927126195223,
      24.18178098015975
    ],
    "p95_range": [
      20.742927126195223,
      24.18178098015975
    ],
    "std": 0.8848141691375666
  },
  "Interface rho": {
    "best": 27.090463604162963,
    "index": 6,
    "integer": false,
    "label": "Interface rho",
    "mean": 26.266110394456895,
    "median": 26.300955935712967,
    "p68": [
      25.637364604403206,
      26.915451070080767
    ],
    "p68_range": [
      25.637364604403206,
      26.915451070080767
    ],
    "p95": [
      24.922499134419017,
      27.380899212685037
    ],
    "p95_range": [
      24.922499134419017,
      27.380899212685037
    ],
    "std": 0.6359270588857784
  },
  "Interface thickness": {
    "best": 39.23088692995653,
    "index": 7,
    "integer": false,
    "label": "Interface thickness",
    "mean": 38.736291263723515,
    "median": 38.73244998676157,
    "p68": [
      38.16905305014513,
      39.306501615807996
    ],
    "p68_range": [
      38.16905305014513,
      39.306501615807996
    ],
    "p95": [
      37.677481004500564,
      39.78076763308409
    ],
    "p95_range": [
      37.677481004500564,
      39.78076763308409
    ],
    "std": 0.5453150809016917
  },
  "Permalloy interface": {
    "best": 6.54923257724473,
    "index": 12,
    "integer": false,
    "label": "Permalloy interface",
    "mean": 6.554718397739328,
    "median": 6.555070450539585,
    "p68": [
      6.540856155673379,
      6.567640996520374
    ],
    "p68_range": [
      6.540856155673379,
      6.567640996520374
    ],
    "p95": [
      6.5290616578451255,
      6.580077115564937
    ],
    "p95_range": [
      6.5290616578451255,
      6.580077115564937
    ],
    "std": 0.013280041188089876
  },
  "Permalloy irho": {
    "best": 5.775115899930661,
    "index": 13,
    "integer": false,
    "label": "Permalloy irho",
    "mean": 5.719539342488925,
    "median": 5.712911528089092,
    "p68": [
      5.499859896523115,
      5.940951008272895
    

Note: Fits/X-Ray/Interface/1 Silicon-SiOx/R1XR Silicon-SiOx-expt.json
{"type": "Experiment", "sample": {"type": "Stack", "layers": [{"name": "Silicon", "type": "Slab", "thickness": {"type": "Parameter", "name": "Silicon thickness", "value": 0.0, "fixed": true, "fittable": true, "bounds": {"type": "Bounded", "limits": [0.0, 100.0]}}, "interface": {"type": "Parameter", "name": "Silicon interface", "value": 15.09692504432007, "fixed": false, "fittable": true, "bounds": {"type": "Bounded", "limits": [8.65, 28.65]}}, "material": {"type": "SLD", "name": "Silicon", "rho": {"type": "Parameter", "name": "Silicon rho", "value": 20.07, "fixed": true, "fittable": true, "bounds": {"type": "Bounded", "limits": [19.07, 21.07]}}, "irho": {"type": "Parameter", "name": "Silicon irho", "value": -0.458, "fixed": true, "fittable": true, "bounds": {"type": "Bounded", "limits": [-0.542, 1.458]}}}}, {"name": "Interface", "type": "Slab", "thickness": {"type": "Parameter", "name": "Interface thickness", "value": 39.45355758352551, "fixed": false, "fittable": true, "bounds": {"type": "Bounded", "limits": [0.0, 140.0]}}, "interface": {"type": "Parameter", "name": "Interface interface", "value": 2.721191025940913, "fixed": false, "fittable": true, "bounds": {"type": "Bounded", "limits": [0.0, 50.0]}}, "material": {"type": "SLD", "name": "Interface", "rho": {"type": "Parameter", "name": "Interface rho", "value": 28.569668989166598, "fixed": false, "fittable": true, "bounds": {"type": "Bounded", "limits": [-10.0, 40.0]}}, "irho": {"type": "Parameter", "name": "Interface irho", "value": 25.727098821051037, "fixed": false, "fittable": true, "bounds": {"type": "Bounded", "limits": [-0.5, 50.0]}}}}, {"name": "SiOx", "type": "Slab", "thickness": {"type": "Parameter", "name": "SiOx thickness", "value": 0.036868071236865335, "fixed": false, "fittable": true, "bounds": {"type": "Bounded", "limits": [0.0, 140.0]}}, "interface": {"type": "Parameter", "name": "SiOx interface", "value": 4.58236559997983, "fixed": false, "fittable": true, "bounds": {"type": "Bounded", "limits": [0.0, 13.224]}}, "material": {"type": "SLD", "name": "SiOx", "rho": {"type": "Parameter", "name": "SiOx rho", "value": 25.898034864528398, "fixed": false, "fittable": true, "bounds": {"type": "Bounded", "limits": [15.0, 40.0]}}, "irho": {"type": "Parameter", "name": "SiOx irho", "value": -0.17977300241451272, "fixed": false, "fittable": true, "bounds": {"type": "Bounded", "limits": [-0.5, 15.0]}}}}, {"name": "Permalloy", "type": "Slab", "thickness": {"type": "Parameter", "name": "Permalloy thickness", "value": 105.78060672601119, "fixed": false, "fittable": true, "bounds": {"type": "Bounded", "limits": [10.0, 200.0]}}, "interface": {"type": "Parameter", "name": "Permalloy interface", "value": 6.545819165062917, "fixed": false, "fittable": true, "bounds": {"type": "Bounded", "limits": [0.0, 16.751]}}, "material": {"type": "SLD", "name": "Permalloy", "rho": {"type": "Parameter", "name": "Permalloy rho", "value": 67.62929541591889, "fixed": false, "fittable": true, "bounds": {"type": "Bo

Note: README.md
# Nafion
This repository contains the data, fits, and code used to determine the structure of Nafion at the surface of a platinum electrode.

# Structure
The repository is organized into five subrepositories that contain:

1. **Analysis-** summary tables and a presentation of the results.
2. **Figures-** PDFs of the best fit profiles and reflectivity.
3. **Fits-** the Refl1D output files for each fit,
4. **Refl Files-** raw Refl files from the data cleaning and reduction step.
5. **Scripts-** Python fitting scripts used in conjunction with Refl1D.

The **Analysis** folder is further divided into folders named after the experimental conditions, and an additional **Active** folder that contains the current best fit models.

File: R1XR Silicon-SiOx-refl.dat
# intensity: 1.07441
# background: 1.98459e-08
#           Q (1/A)             dQ (1/A)                    R                   dR               theory              fresnel
     0.0483642 0.000750703       0.951435     0.00501004    0.91462   0.0198699
      0.0540541 0.000750729       0.891643     0.00477517    0.876285   0.012021
     0.0597439 0.000750758       0.797485     0.00440218    0.801732  0.00740608
     0.0654336 0.00075079       0.611078     0.00364825      0.648153  0.00484959
     0.0711234 0.000750825        0.478614      0.00309314    0.473017  0.00332478
     0.0768131 0.000750863       0.459408     0.0030107    0.441686  0.00236326
     0.0825028 0.000750903       0.407801     0.00278597    0.401822   0.0017298
     0.0881924 0.000750947       0.315984     0.00237106    0.307848  0.00129736
     0.093882 0.000750993       0.203718     0.00182082    0.199231 0.000993311
     0.0995715 0.000751043       0.126109     0.00138567    0.122179 0.000774109
      0.105261 0.000751095       0.0864528     0.00112693   0.0870603 0.000612647
      0.11095 0.00075115      0.0717636     0.00101977   0.0712654 0.00049147
      0.11664 0.000751208      0.056803    0.000900912   0.0555681 0.00039902
      0.122329  0.000751269      0.0366782    0.000717022   0.0363061 0.00032745
      0.128018 0.000751333      0.0191642    0.000513886   0.018403 0.000271319
      0.133708 0.0007514       0.00715996    4.06431e-05  0.00705051 0.000226777
      0.139397 0.00075147      0.00323263    2.39623e-05  0.00314463 0.000191054
      0.145086 0.000751542      0.00369498    2.6159e-05  0.00352504 0.000162128
      0.150775 0.000751618     0.00441552    2.93399e-05  0.00430622 0.000138496
      0.156464  0.000751696     0.00376296    2.64656e-05  0.00368215 0.000119035
      0.162153 0.000751777      0.00229319    1.95261e-05  0.002228 0.000102887
      0.167841 0.000751861     0.00142039    1.48132e-05  0.00137365 8.93964e-05
      0.17353 0.000751949     0.00180153    1.69586e-05  0.00179324  7.80534e-05
      0.179219 0.000752038     0.00289959    2.24921e-05  0.00295185 6.84593e-05
      0.184907 0.000752131      0.00375126      2.6414e-05  0.00380109 6.02995e-05
      0.190596 0.000752227     0.00367332    2.60639e-05  0.00371089 5.33235e-05
      0.196284 0.000752326     0.00285421    2.22767e-05   0.00283648 4.73306e-05
      0.201972 0.000752427      0.0018165    1.70415e-05  0.00181489 4.21587e-05
      0.20766  0.000752531      0.00119982    1.34865e-05   0.00120167 3.76762e-05
      0.213348 0.000752639     0.00109143     6.38196e-06  0.00111617  3.37755e-05
       0.219036 0.000752749     0.00125787    7.44613e-06  0.00128681 3.03681e-05
      0.224724 0.000752862     0.00132416    7.71661e-06  0.00135377 2.73808e-05
      0.230412 0.000752978       0.00113446    6.93603e-06  0.00114574 2.47529e-05
      0.2361  0.000753096    0.000743413     5.2542e-06 0.000747869 2.24336e-05
      0.241787 0.000753218    0.000363751    3.41239e-06 0.000373826 2.03804e-05
      0.247474 0.000753342    0.000174183    2.26555e-06 0.000183114 1.85574e-05
      0.253162 0.00075347     0.000172904    2.25594e-06 0.000183701 1.69343e-05
      0.258849 0.0007536    0.000256498     2.79959e-06 0.000265045 1.54852e-05
      0.264536  0.000753733     0.000299363    3.05329e-06   0.000304877 1.41883e-05
       0.270223 0.000753869    0.000248255    2.7485e-06 0.000256154 1.30248e-05
       0.27591 0.000754008    0.00014367    2.0428e-06 0.000158495 1.19784e-05
      0.281596  0.00075415    7.62973e-05    1.46707e-06 8.52437e-05  1.10354e-05
      0.287283 0.000754294    6.87165e-05    1.38989e-06 7.95025e-05 1.01836e-05
      0.292969  0.000754442     0.000122563    1.87778e-06 0.00012733 9.4127e-06
      0.298655 0.000754592      0.000173893    2.26371e-06 0.000178691 8.71361e-06
      0.304341  0.000754745    0.000186584    2.35136e-06 0.000190369  8.07845e-06
      0.310027 0.000754901    0.000150859    2.09721e-06 0.000155274 7.50032e-06
      0.315713 0.00075506    9.86801e-05    1.67677e-06 0.000100167 6.97319e-06
      0.321398 0.000755221    5.70398e-05    1.26513e-06 6.00714e-05 6.49173e-06
      0.327084   0.000755386    5.10703e-05    1.1973e-06 5.22486e-05 6.05128e-06
      0.332769 0.000755553    6.92978e-05     1.3973e-06 6.80485e-05 5.64772e-06
      0.338454 0.000755723    8.81335e-05    1.58111e-06 8.45453e-05  5.27738e-06
      0.344139 0.000755896    8.72089e-05    1.57221e-06 8.36291e-05 4.93705e-06
      0.349824 0.000756072    6.1544e-05    1.31331e-06 6.36571e-05 4.62385e-06
      0.355509 0.000756251    3.63711e-05    3.42188e-07 3.72174e-05 4.33535e-06
      0.366877 0.000756617    1.55533e-05     2.25575e-07  1.60662e-05 3.82303e-06
      0.378245 0.000756994    2.98107e-05     3.20094e-07 3.01505e-05 3.38449e-06
      0.389613 0.000757383    2.0037e-05    2.57705e-07 2.2008e-05 3.00744e-06
      0.400979 0.000757782    5.56454e-06      1.33336e-07 6.55766e-06 2.68181e-06
      0.412345 0.000758193    1.09164e-05    1.87369e-07  1.15908e-05 2.3994e-06
      0.42371 0.000758615     1.3823e-05    2.1157e-07 1.44952e-05 2.1535e-06
      0.435074 0.000759049    5.85682e-06    1.3669e-07 5.70193e-06 1.93859e-06
      0.446437 0.000759493     4.04303e-06    1.14208e-07 3.55646e-06 1.7501e-06
      0.457799 0.000759949    7.40615e-06    1.53745e-07  7.07834e-06 1.58422e-06
       0.4649 0.00076024    6.56573e-06    7.24209e-08 6.25736e-06 1.49056e-06
      0.476261 0.000760714     2.3004e-06    4.1948e-08 1.89627e-06 1.35489e-06
      0.487621 0.000761199    1.90608e-06    3.82458e-08 1.58994e-06  1.23451e-06
      0.49898 0.000761694    3.08152e-06    4.83506e-08  3.08767e-06 1.12741e-06
      0.510338 0.000762202    1.87371e-06    3.79812e-08 1.63841e-06 1.03187e-06
      0.521695 0.00076272    5.63896e-07    2.26878e-08 3.87294e-07 9.46424e-07
      0.533051 0.000763249    1.1845e-06    3.0857e-08 1.17381e-06  8.69817e-07
      0.544406 0.000763789    1.26304e-06    3.16686e-08 1.21305e-06 8.00975e-07
      0.55576 0.00076434    4.4886e-07    2.05375e-08 2.94162e-07 7.38971e-07
      0.567113 0.000764901    3.73655e-07    1.86391e-08 2.901e-07 6.82998e-07
      0.574208 0.000765258    6.14205e-07     1.45636e-08 5.77527e-07 6.50783e-07
      0.585559 0.000765838    5.65676e-07    1.30794e-08 5.09318e-07 6.03195e-07
      0.596909 0.000766428    1.37431e-07    8.50934e-09 9.56874e-08 5.60015e-07
      0.608258 0.000767029    1.81454e-07    9.03174e-09 1.51344e-07 5.20762e-07
      0.619605  0.000767641    3.32922e-07     1.07794e-08 2.97017e-07  4.85016e-07
      0.630952 0.000768264    1.4624e-07    8.4887e-09 1.31379e-07 4.52406e-07
      0.642297 0.000768897     3.78274e-08    6.79982e-09 3.13425e-08 4.22608e-07
      0.653641 0.000769541    1.40923e-07    8.31477e-09 1.22887e-07 3.95336e-07
      0.664983  0.000770196    1.01046e-07    7.88353e-09 1.18482e-07 3.70336e-07
      0.676325 0.000770861    1.58611e-08    6.43878e-09 3.15907e-08 3.47386e-07
      0.687665 0.000771537     6.11006e-08    7.10095e-09 3.96577e-08 3.26287e-07
       0.699003 0.000772224    6.23623e-08    7.10715e-09 7.40587e-08 3.06862e-07
      0.71034 0.000772921    2.36562e-08     6.40672e-09 4.34994e-08 2.88955e-07
      0.721676 0.000773628    1.04087e-08    6.14912e-09 2.03679e-08 2.72425e-07
      0.733011 0.000774346    2.68779e-08    6.50839e-09 3.82054e-08 2.57146e-07
      0.744344 0.000775074    1.20083e-08    6.29982e-09 4.01464e-08 2.43008e-07
      0.755675  0.000775813    7.36729e-09    6.1952e-09 2.29455e-08 2.29909e-07
      0.767006 0.000776562    1.20534e-08    6.15267e-09 2.28687e-08  2.17759e-07
      0.778334 0.000777321    6.19559e-09    6.16892e-09 3.02133e-08  2.06476e-07
      0.789661 0.000778091    9.0796e-09    6.14868e-09 2.57728e-08 1.96542e-07