Folder: Nafion/Fits/X-Ray/Interface/2 SiOx-Permalloy

Note: Fits/X-Ray/Interface/2 SiOx-Permalloy/R1XR SiOx-Permalloy-err.json
{
  "Interface interface": {
    "best": 13.168203834932513,
    "index": 8,
    "integer": false,
    "label": "Interface interface",
    "mean": 13.19120233135948,
    "median": 13.19018491015887,
    "p68": [
      13.059810276954218,
      13.324575822627123
    ],
    "p68_range": [
      13.059810276954218,
      13.324575822627123
    ],
    "p95": [
      12.946478238277347,
      13.46008928609295
    ],
    "p95_range": [
      12.946478238277347,
      13.46008928609295
    ],
    "std": 0.13168981644289807
  },
  "Interface irho": {
    "best": -0.1664235437140017,
    "index": 9,
    "integer": false,
    "label": "Interface irho",
    "mean": -0.18904271212606394,
    "median": -0.2077040729136255,
    "p68": [
      -0.3863468831051482,
      0.0077639492031176425
    ],
    "p68_range": [
      -0.3863468831051482,
      0.0077639492031176425
    ],
    "p95": [
      -0.4803614003453657,
      0.15646470922981232
    ],
    "p95_range": [
      -0.4803614003453657,
      0.15646470922981232
    ],
    "std": 0.17972215356905963
  },
  "Interface rho": {
    "best": 60.62671837173999,
    "index": 10,
    "integer": false,
    "label": "Interface rho",
    "mean": 60.721572647053,
    "median": 60.720436031513124,
    "p68": [
      60.56124879087907,
      60.888055606744764
    ],
    "p68_range": [
      60.56124879087907,
      60.888055606744764
    ],
    "p95": [
      60.40273076682626,
      61.05716047505415
    ],
    "p95_range": [
      60.40273076682626,
      61.05716047505415
    ],
    "std": 0.1666086975537866
  },
  "Interface thickness": {
    "best": 109.78908353646112,
    "index": 11,
    "integer": false,
    "label": "Interface thickness",
    "mean": 109.76067886440428,
    "median": 109.76445515609419,
    "p68": [
      109.73036283618359,
      109.79036912495934
    ],
    "p68_range": [
      109.73036283618359,
      109.79036912495934
    ],
    "p95": [
      109.68909311928547,
      109.81503501034783
    ],
    "p95_range": [
      109.68909311928547,
      109.81503501034783
    ],
    "std": 0.03128735218384933
  },
  "Permalloy interface": {
    "best": 5.673906234460558,
    "index": 12,
    "integer": false,
    "label": "Permalloy interface",
    "mean": 5.66870828546043,
    "median": 5.668223927976943,
    "p68": [
      5.6470254687466594,
      5.690588703199615
    ],
    "p68_range": [
      5.6470254687466594,
      5.690588703199615
    ],
    "p95": [
      5.627404139598829,
      5.7141105468824795
    ],
    "p95_range": [
      5.627404139598829,
      5.7141105468824795
    ],
    "std": 0.021658579389024553
  },
  "Permalloy irho": {
    "best": 19.990453186896058,
    "index": 13,
    "integer": false,
    "label": "Permalloy irho",
    "mean": 19.8847600429072,
    "median": 19.91657477309375,
    "p68": [
      19.791303713756122,
      1

Note: Fits/X-Ray/Interface/2 SiOx-Permalloy/R1XR SiOx-Permalloy-expt.json
{"type": "Experiment", "sample": {"type": "Stack", "layers": [{"name": "Silicon", "type": "Slab", "thickness": {"type": "Parameter", "name": "Silicon thickness", "value": 0.0, "fixed": true, "fittable": true, "bounds": {"type": "Bounded", "limits": [0.0, 100.0]}}, "interface": {"type": "Parameter", "name": "Silicon interface", "value": 12.061555498507925, "fixed": false, "fittable": true, "bounds": {"type": "Bounded", "limits": [8.65, 28.65]}}, "material": {"type": "SLD", "name": "Silicon", "rho": {"type": "Parameter", "name": "Silicon rho", "value": 20.068684307983673, "fixed": true, "fittable": true, "bounds": {"type": "Bounded", "limits": [19.07, 21.07]}}, "irho": {"type": "Parameter", "name": "Silicon irho", "value": -0.458, "fixed": true, "fittable": true, "bounds": {"type": "Bounded", "limits": [-0.542, 1.458]}}}}, {"name": "SiOx", "type": "Slab", "thickness": {"type": "Parameter", "name": "SiOx thickness", "value": 28.25976084899747, "fixed": false, "fittable": true, "bounds": {"type": "Bounded", "limits": [0.0, 140.0]}}, "interface": {"type": "Parameter", "name": "SiOx interface", "value": 3.2615236620825687, "fixed": false, "fittable": true, "bounds": {"type": "Bounded", "limits": [0.0, 13.224]}}, "material": {"type": "SLD", "name": "SiOx", "rho": {"type": "Parameter", "name": "SiOx rho", "value": 26.252280064174982, "fixed": false, "fittable": true, "bounds": {"type": "Bounded", "limits": [15.0, 40.0]}}, "irho": {"type": "Parameter", "name": "SiOx irho", "value": -0.38609317289336575, "fixed": false, "fittable": true, "bounds": {"type": "Bounded", "limits": [-0.5, 50.0]}}}}, {"name": "Interface", "type": "Slab", "thickness": {"type": "Parameter", "name": "Interface thickness", "value": 108.96544271034894, "fixed": false, "fittable": true, "bounds": {"type": "Bounded", "limits": [0.0, 110.0]}}, "interface": {"type": "Parameter", "name": "Interface interface", "value": 15.191016592480828, "fixed": false, "fittable": true, "bounds": {"type": "Bounded", "limits": [0.0, 50.0]}}, "material": {"type": "SLD", "name": "Interface", "rho": {"type": "Parameter", "name": "Interface rho", "value": 60.43899915555455, "fixed": false, "fittable": true, "bounds": {"type": "Bounded", "limits": [20.0, 80.0]}}, "irho": {"type": "Parameter", "name": "Interface irho", "value": -0.15293340840029113, "fixed": false, "fittable": true, "bounds": {"type": "Bounded", "limits": [-0.5, 50.0]}}}}, {"name": "Permalloy", "type": "Slab", "thickness": {"type": "Parameter", "name": "Permalloy thickness", "value": 0.003091456222880808, "fixed": false, "fittable": true, "bounds": {"type": "Bounded", "limits": [0.0, 200.0]}}, "interface": {"type": "Parameter", "name": "Permalloy interface", "value": 5.808742938940723, "fixed": false, "fittable": true, "bounds": {"type": "Bounded", "limits": [0.0, 16.751]}}, "material": {"type": "SLD", "name": "Permalloy", "rho": {"type": "Parameter", "name": "Permalloy rho", "value": 81.71554753852136, "fixed": false, "fittable": true, "bound

Note: README.md
# Nafion
This repository contains the data, fits, and code used to determine the structure of Nafion at the surface of a platinum electrode.

# Structure
The repository is organized into five subrepositories that contain:

1. **Analysis-** summary tables and a presentation of the results.
2. **Figures-** PDFs of the best fit profiles and reflectivity.
3. **Fits-** the Refl1D output files for each fit,
4. **Refl Files-** raw Refl files from the data cleaning and reduction step.
5. **Scripts-** Python fitting scripts used in conjunction with Refl1D.

The **Analysis** folder is further divided into folders named after the experimental conditions, and an additional **Active** folder that contains the current best fit models.

File: R1XR SiOx-Permalloy-refl.dat
# intensity: 1.04976
# background: 2.46462e-08
#           Q (1/A)             dQ (1/A)                    R                   dR               theory              fresnel
     0.0483642 0.000750703       0.951435     0.00501004    0.914234   0.0194108
      0.0540541 0.000750729       0.891643     0.00477517    0.878203   0.0117433
     0.0597439 0.000750758       0.797485     0.00440218    0.798278  0.00723508
     0.0654336 0.00075079       0.611078     0.00364825    0.627067  0.00473764
     0.0711234 0.000750825        0.478614      0.00309314    0.483486   0.00324805
     0.0768131 0.000750863       0.459408     0.0030107    0.457042  0.00230872
     0.0825028 0.000750903       0.407801     0.00278597    0.406655  0.00168988
     0.0881924 0.000750947       0.315984     0.00237106    0.31287  0.00126743
     0.093882 0.000750993       0.203718     0.00182082    0.20613 0.000970396
     0.0995715 0.000751043       0.126109     0.00138567    0.125493 0.000756254
      0.105261 0.000751095       0.0864528     0.00112693   0.0853009 0.000598517
      0.11095 0.00075115      0.0717636     0.00101977   0.0680662  0.000480136
      0.11664 0.000751208      0.056803    0.000900912    0.0535092 0.000389819
      0.122329  0.000751269      0.0366782    0.000717022   0.0355001 0.000319901
      0.128018 0.000751333      0.0191642    0.000513886   0.0181782  0.000265065
      0.133708 0.0007514       0.00715996    4.06431e-05  0.00701836 0.00022155
      0.139397 0.00075147      0.00323263    2.39623e-05  0.00318574 0.000186652
      0.145086 0.000751542      0.00369498    2.6159e-05  0.00356563 0.000158393
      0.150775 0.000751618     0.00441552    2.93399e-05  0.00431145 0.000135307
      0.156464  0.000751696     0.00376296    2.64656e-05  0.00368308 0.000116294
      0.162153 0.000751777      0.00229319    1.95261e-05  0.00225672 0.000100519
      0.167841 0.000751861     0.00142039    1.48132e-05  0.00140425 8.73394e-05
      0.17353 0.000751949     0.00180153    1.69586e-05  0.00177022  7.6258e-05
      0.179219 0.000752038     0.00289959    2.24921e-05  0.00285673 6.68853e-05
      0.184907 0.000752131      0.00375126      2.6414e-05  0.00367167  5.89138e-05
      0.190596 0.000752227     0.00367332    2.60639e-05  0.00360254 5.20987e-05
      0.196284 0.000752326     0.00285421    2.22767e-05  0.00277811 4.6244e-05
      0.201972 0.000752427      0.0018165    1.70415e-05  0.00179943 4.11915e-05
      0.20766  0.000752531      0.00119982    1.34865e-05  0.0012059 3.68124e-05
      0.213348 0.000752639     0.00109143     6.38196e-06  0.00112242 3.30016e-05
       0.219036 0.000752749     0.00125787    7.44613e-06  0.00128955  2.96728e-05
      0.224724 0.000752862     0.00132416    7.71661e-06  0.00135418   2.67544e-05
      0.230412 0.000752978       0.00113446    6.93603e-06  0.0011452 2.41871e-05
      0.2361  0.000753096    0.000743413     5.2542e-06  0.000746152  2.19214e-05
      0.241787 0.000753218    0.000363751    3.41239e-06 0.00037063 1.99155e-05
      0.247474 0.000753342    0.000174183    2.26555e-06 0.000179251  1.81346e-05
      0.253162 0.00075347     0.000172904    2.25594e-06 0.000180441  1.65489e-05
      0.258849 0.0007536    0.000256498     2.79959e-06  0.000262754 1.51333e-05
      0.264536  0.000753733     0.000299363    3.05329e-06 0.000302628 1.38663e-05
       0.270223 0.000753869    0.000248255    2.7485e-06 0.000252758 1.27296e-05
       0.27591 0.000754008    0.00014367    2.0428e-06 0.000153944 1.17074e-05
      0.281596  0.00075415    7.62973e-05    1.46707e-06 8.11845e-05 1.07861e-05
      0.287283 0.000754294    6.87165e-05    1.38989e-06 7.82175e-05 9.95396e-06
      0.292969  0.000754442     0.000122563    1.87778e-06  0.000130017 9.20083e-06
      0.298655 0.000754592      0.000173893    2.26371e-06 0.000184439 8.51787e-06
      0.304341  0.000754745    0.000186584    2.35136e-06 0.000196663 7.89737e-06
      0.310027 0.000754901    0.000150859    2.09721e-06 0.000159639 7.33257e-06
      0.315713 0.00075506    9.86801e-05    1.67677e-06 0.000101705 6.8176e-06
      0.321398 0.000755221    5.70398e-05    1.26513e-06 5.98004e-05 6.34725e-06
      0.327084   0.000755386    5.10703e-05    1.1973e-06 5.21083e-05  5.91696e-06
      0.332769 0.000755553    6.92978e-05     1.3973e-06 6.94295e-05 5.5227e-06
      0.338454 0.000755723    8.81335e-05    1.58111e-06 8.74222e-05   5.16091e-06
      0.344139 0.000755896    8.72089e-05    1.57221e-06  8.68086e-05 4.82843e-06
      0.349824 0.000756072    6.1544e-05    1.31331e-06 6.57867e-05 4.52245e-06
      0.355509 0.000756251    3.63711e-05    3.42188e-07 3.7732e-05 4.24061e-06
      0.366877 0.000756617    1.55533e-05     2.25575e-07 1.52327e-05 3.7401e-06
      0.378245 0.000756994    2.98107e-05     3.20094e-07 3.0582e-05  3.31168e-06
      0.389613 0.000757383    2.0037e-05    2.57705e-07 2.24869e-05 2.94333e-06
      0.400979 0.000757782    5.56454e-06      1.33336e-07 6.32867e-06 2.6252e-06
      0.412345 0.000758193    1.09164e-05    1.87369e-07 1.17708e-05 2.34931e-06
      0.42371 0.000758615     1.3823e-05    2.1157e-07 1.50875e-05 2.10909e-06
      0.435074 0.000759049    5.85682e-06    1.3669e-07 5.96659e-06 1.89913e-06
      0.446437 0.000759493     4.04303e-06    1.14208e-07  3.60703e-06 1.71499e-06
      0.457799 0.000759949    7.40615e-06    1.53745e-07  7.21949e-06 1.55293e-06
       0.4649 0.00076024    6.56573e-06    7.24209e-08 6.42639e-06 1.46143e-06
      0.476261 0.000760714     2.3004e-06    4.1948e-08 2.01124e-06 1.3289e-06
      0.487621 0.000761199    1.90608e-06    3.82458e-08 1.61276e-06 1.21129e-06
      0.49898 0.000761694    3.08152e-06    4.83506e-08 3.04549e-06 1.10666e-06
      0.510338 0.000762202    1.87371e-06    3.79812e-08 1.64905e-06  1.01333e-06
      0.521695 0.00076272    5.63896e-07    2.26878e-08 4.53703e-07 9.29851e-07
      0.533051 0.000763249    1.1845e-06    3.0857e-08 1.15872e-06 8.55012e-07
      0.544406 0.000763789    1.26304e-06    3.16686e-08 1.1582e-06 7.87758e-07
      0.55576 0.00076434    4.4886e-07    2.05375e-08 3.25359e-07 7.27184e-07
      0.567113 0.000764901    3.73655e-07    1.86391e-08 3.23159e-07 6.72502e-07
      0.574208 0.000765258    6.14205e-07     1.45636e-08 5.54821e-07 6.4103e-07
      0.585559 0.000765838    5.65676e-07    1.30794e-08 4.61046e-07 5.94539e-07
      0.596909 0.000766428    1.37431e-07    8.50934e-09 1.15611e-07 5.52355e-07
      0.608258 0.000767029    1.81454e-07    9.03174e-09 1.6675e-07 5.14008e-07
      0.619605  0.000767641    3.32922e-07     1.07794e-08 2.59275e-07 4.79086e-07
      0.630952 0.000768264    1.4624e-07    8.4887e-09 1.16454e-07 4.47229e-07
      0.642297 0.000768897     3.78274e-08    6.79982e-09 5.07349e-08 4.18118e-07
      0.653641 0.000769541    1.40923e-07    8.31477e-09 1.14871e-07 3.91475e-07
      0.664983  0.000770196    1.01046e-07    7.88353e-09 9.6226e-08 3.67052e-07
      0.676325 0.000770861    1.58611e-08    6.43878e-09 3.6269e-08 3.44631e-07
      0.687665 0.000771537     6.11006e-08    7.10095e-09 4.72754e-08 3.24019e-07
       0.699003 0.000772224    6.23623e-08    7.10715e-09 6.3069e-08 3.05042e-07
      0.71034 0.000772921    2.36562e-08     6.40672e-09 3.83666e-08 2.87548e-07
      0.721676 0.000773628    1.04087e-08    6.14912e-09 2.78432e-08 2.71399e-07
      0.733011 0.000774346    2.68779e-08    6.50839e-09 3.87476e-08 2.56473e-07
      0.744344 0.000775074    1.20083e-08    6.29982e-09 3.558e-08 2.42661e-07
      0.755675  0.000775813    7.36729e-09    6.1952e-09 2.59616e-08 2.29864e-07
      0.767006 0.000776562    1.20534e-08    6.15267e-09 2.78496e-08 2.17994e-07
      0.778334 0.000777321    6.19559e-09    6.16892e-09 3.0355e-08  2.06972e-07
      0.789661 0.000778091    9.0796e-09    6.14868e-09 2.67655e-08 1.97266e-07