Folder: Nafion/Fits/X-Ray/Interface/3 Permalloy-Pt

Note: Fits/X-Ray/Interface/3 Permalloy-Pt/R1XR Permalloy-Pt-err.json
{
  "Interace interface": {
    "best": 5.849307574306291,
    "index": 12,
    "integer": false,
    "label": "Interace interface",
    "mean": 5.839499922093413,
    "median": 5.841381709122588,
    "p68": [
      5.7425834021059226,
      5.929366583413305
    ],
    "p68_range": [
      5.7425834021059226,
      5.929366583413305
    ],
    "p95": [
      5.647461067085188,
      6.023343366305976
    ],
    "p95_range": [
      5.647461067085188,
      6.023343366305976
    ],
    "std": 0.09380964174345817
  },
  "Interace irho": {
    "best": 13.234040790493715,
    "index": 13,
    "integer": false,
    "label": "Interace irho",
    "mean": 13.172200111739976,
    "median": 13.162814914592596,
    "p68": [
      12.97881863899556,
      13.352918356953353
    ],
    "p68_range": [
      12.97881863899556,
      13.352918356953353
    ],
    "p95": [
      12.798691603130086,
      13.600504175726488
    ],
    "p95_range": [
      12.798691603130086,
      13.600504175726488
    ],
    "std": 0.19777764799721767
  },
  "Interace rho": {
    "best": 128.23125888313297,
    "index": 14,
    "integer": false,
    "label": "Interace rho",
    "mean": 128.13193953132745,
    "median": 128.13250830379138,
    "p68": [
      127.97508151549079,
      128.29239779276065
    ],
    "p68_range": [
      127.97508151549079,
      128.29239779276065
    ],
    "p95": [
      127.81149283025414,
      128.43798425785877
    ],
    "p95_range": [
      127.81149283025414,
      128.43798425785877
    ],
    "std": 0.15882035156711324
  },
  "Interace thickness": {
    "best": 40.570876743457916,
    "index": 15,
    "integer": false,
    "label": "Interace thickness",
    "mean": 40.44139574202742,
    "median": 40.42486989876055,
    "p68": [
      40.119834297897604,
      40.74984218639285
    ],
    "p68_range": [
      40.119834297897604,
      40.74984218639285
    ],
    "p95": [
      39.837883270099645,
      41.13559567069353
    ],
    "p95_range": [
      39.837883270099645,
      41.13559567069353
    ],
    "std": 0.32508318558569804
  },
  "Permalloy interface": {
    "best": 6.62499170931091,
    "index": 8,
    "integer": false,
    "label": "Permalloy interface",
    "mean": 6.624336675043829,
    "median": 6.62467609950818,
    "p68": [
      6.610546251610973,
      6.6374168210294044
    ],
    "p68_range": [
      6.610546251610973,
      6.6374168210294044
    ],
    "p95": [
      6.597636752656456,
      6.650685022376723
    ],
    "p95_range": [
      6.597636752656456,
      6.650685022376723
    ],
    "std": 0.013371228291397547
  },
  "Permalloy irho": {
    "best": 5.027679033254557,
    "index": 9,
    "integer": false,
    "label": "Permalloy irho",
    "mean": 5.079516244880239,
    "median": 5.083678582302957,
    "p68": [
      4.891687302354138,
      5.259915064712041
    ],
    

Note: Fits/X-Ray/Interface/3 Permalloy-Pt/R1XR Permalloy-Pt-expt.json
{"type": "Experiment", "sample": {"type": "Stack", "layers": [{"name": "Silicon", "type": "Slab", "thickness": {"type": "Parameter", "name": "Silicon thickness", "value": 0.0, "fixed": true, "fittable": true, "bounds": {"type": "Bounded", "limits": [0.0, 100.0]}}, "interface": {"type": "Parameter", "name": "Silicon interface", "value": 0.0703151446256971, "fixed": false, "fittable": true, "bounds": {"type": "Bounded", "limits": [0.0, 28.65]}}, "material": {"type": "SLD", "name": "Silicon", "rho": {"type": "Parameter", "name": "Silicon rho", "value": 20.07, "fixed": true, "fittable": true, "bounds": {"type": "Bounded", "limits": [19.07, 21.07]}}, "irho": {"type": "Parameter", "name": "Silicon irho", "value": -0.458, "fixed": true, "fittable": true, "bounds": {"type": "Bounded", "limits": [-0.542, 1.458]}}}}, {"name": "SiOx", "type": "Slab", "thickness": {"type": "Parameter", "name": "SiOx thickness", "value": 8.99519274785514, "fixed": false, "fittable": true, "bounds": {"type": "Bounded", "limits": [0.0, 140.0]}}, "interface": {"type": "Parameter", "name": "SiOx interface", "value": 3.3826228670556056, "fixed": false, "fittable": true, "bounds": {"type": "Bounded", "limits": [0.0, 13.224]}}, "material": {"type": "SLD", "name": "SiOx", "rho": {"type": "Parameter", "name": "SiOx rho", "value": 21.312111059684263, "fixed": false, "fittable": true, "bounds": {"type": "Bounded", "limits": [15.0, 40.0]}}, "irho": {"type": "Parameter", "name": "SiOx irho", "value": 0.7263858588904906, "fixed": false, "fittable": true, "bounds": {"type": "Bounded", "limits": [-0.5, 15.0]}}}}, {"name": "Permalloy", "type": "Slab", "thickness": {"type": "Parameter", "name": "Permalloy thickness", "value": 108.53095892915242, "fixed": false, "fittable": true, "bounds": {"type": "Bounded", "limits": [95.0, 115.0]}}, "interface": {"type": "Parameter", "name": "Permalloy interface", "value": 6.62499170931091, "fixed": false, "fittable": true, "bounds": {"type": "Bounded", "limits": [0.0, 16.751]}}, "material": {"type": "SLD", "name": "Permalloy", "rho": {"type": "Parameter", "name": "Permalloy rho", "value": 59.34770407821727, "fixed": false, "fittable": true, "bounds": {"type": "Bounded", "limits": [40.0, 70.0]}}, "irho": {"type": "Parameter", "name": "Permalloy irho", "value": 5.027679033254557, "fixed": false, "fittable": true, "bounds": {"type": "Bounded", "limits": [-3.0, 10.0]}}}}, {"name": "Interace", "type": "Slab", "thickness": {"type": "Parameter", "name": "Interace thickness", "value": 40.570876743457916, "fixed": false, "fittable": true, "bounds": {"type": "Bounded", "limits": [0.0, 140.0]}}, "interface": {"type": "Parameter", "name": "Interace interface", "value": 5.849307574306291, "fixed": false, "fittable": true, "bounds": {"type": "Bounded", "limits": [0.0, 50.0]}}, "material": {"type": "SLD", "name": "Interace", "rho": {"type": "Parameter", "name": "Interace rho", "value": 128.23125888313297, "fixed": false, "fittable": true, "bounds": {"type": "Bounded", "li

Note: README.md
# Nafion
This repository contains the data, fits, and code used to determine the structure of Nafion at the surface of a platinum electrode.

# Structure
The repository is organized into five subrepositories that contain:

1. **Analysis-** summary tables and a presentation of the results.
2. **Figures-** PDFs of the best fit profiles and reflectivity.
3. **Fits-** the Refl1D output files for each fit,
4. **Refl Files-** raw Refl files from the data cleaning and reduction step.
5. **Scripts-** Python fitting scripts used in conjunction with Refl1D.

The **Analysis** folder is further divided into folders named after the experimental conditions, and an additional **Active** folder that contains the current best fit models.

File: R1XR Permalloy-Pt-refl.dat
# intensity: 1.06488
# background: 3.50974e-09
#           Q (1/A)             dQ (1/A)                    R                   dR               theory              fresnel
     0.0483642 0.000750703       0.951435     0.00501004    0.941537   0.0196936
      0.0540541 0.000750729       0.891643     0.00477517    0.895198   0.0119143
     0.0597439 0.000750758       0.797485     0.00440218    0.795993  0.00734035
     0.0654336 0.00075079       0.611078     0.00364825       0.622288  0.00480654
     0.0711234 0.000750825        0.478614      0.00309314    0.487132  0.00329526
     0.0768131 0.000750863       0.459408     0.0030107    0.450842  0.00234227
     0.0825028 0.000750903       0.407801     0.00278597    0.401103  0.00171443
     0.0881924 0.000750947       0.315984     0.00237106    0.309754  0.00128584
     0.093882 0.000750993       0.203718     0.00182082    0.204413 0.000984481
     0.0995715 0.000751043       0.126109     0.00138567    0.124963 0.000767225
      0.105261 0.000751095       0.0864528     0.00112693   0.0864373 0.000607195
      0.11095 0.00075115      0.0717636     0.00101977   0.0707161 0.000487093
      0.11664 0.000751208      0.056803    0.000900912   0.0564563 0.000395463
      0.122329  0.000751269      0.0366782    0.000717022   0.0375396 0.000324528
      0.128018 0.000751333      0.0191642    0.000513886   0.0190344  0.000268895
      0.133708 0.0007514       0.00715996    4.06431e-05  0.00718327 0.000224748
      0.139397 0.00075147      0.00323263    2.39623e-05  0.00321055 0.000189343
      0.145086 0.000751542      0.00369498    2.6159e-05  0.00366121 0.000160673
      0.150775 0.000751618     0.00441552    2.93399e-05  0.00442996 0.000137251
      0.156464  0.000751696     0.00376296    2.64656e-05  0.00374406 0.000117962
      0.162153 0.000751777      0.00229319    1.95261e-05  0.0022591 0.000101958
      0.167841 0.000751861     0.00142039    1.48132e-05   0.00140193 8.8587e-05
      0.17353 0.000751949     0.00180153    1.69586e-05  0.00180776  7.73446e-05
      0.179219 0.000752038     0.00289959    2.24921e-05  0.00294092 6.78357e-05
      0.184907 0.000752131      0.00375126      2.6414e-05  0.0037805 5.97483e-05
      0.190596 0.000752227     0.00367332    2.60639e-05   0.00370443 5.28342e-05
      0.196284 0.000752326     0.00285421    2.22767e-05   0.00284797 4.68945e-05
      0.201972 0.000752427      0.0018165    1.70415e-05   0.00182852 4.17685e-05
      0.20766  0.000752531      0.00119982    1.34865e-05  0.00120267  3.73258e-05
      0.213348 0.000752639     0.00109143     6.38196e-06  0.00110475 3.34597e-05
       0.219036 0.000752749     0.00125787    7.44613e-06  0.00127366  3.00825e-05
      0.224724 0.000752862     0.00132416    7.71661e-06  0.00134705 2.71217e-05
      0.230412 0.000752978       0.00113446    6.93603e-06  0.00114449  2.45171e-05
      0.2361  0.000753096    0.000743413     5.2542e-06 0.000745885 2.22184e-05
      0.241787 0.000753218    0.000363751    3.41239e-06 0.00036691 2.01834e-05
      0.247474 0.000753342    0.000174183    2.26555e-06  0.000172084 1.83766e-05
      0.253162 0.00075347     0.000172904    2.25594e-06 0.000171967 1.67678e-05
      0.258849 0.0007536    0.000256498     2.79959e-06 0.000254867 1.53317e-05
      0.264536  0.000753733     0.000299363    3.05329e-06 0.000296013 1.40463e-05
       0.270223 0.000753869    0.000248255    2.7485e-06 0.000247241 1.28931e-05
       0.27591 0.000754008    0.00014367    2.0428e-06 0.00014901 1.1856e-05
      0.281596  0.00075415    7.62973e-05    1.46707e-06 7.60204e-05 1.09213e-05
      0.287283 0.000754294    6.87165e-05    1.38989e-06 7.16774e-05 1.00771e-05
      0.292969  0.000754442     0.000122563    1.87778e-06  0.000121104 9.31302e-06
      0.298655 0.000754592      0.000173893    2.26371e-06 0.00017316 8.62014e-06
      0.304341  0.000754745    0.000186584    2.35136e-06 0.000184429  7.99061e-06
      0.310027 0.000754901    0.000150859    2.09721e-06 0.00014862 7.41762e-06
      0.315713 0.00075506    9.86801e-05    1.67677e-06 9.34882e-05 6.89515e-06
      0.321398 0.000755221    5.70398e-05    1.26513e-06 5.43698e-05 6.41797e-06
      0.327084   0.000755386    5.10703e-05    1.1973e-06  4.79842e-05 5.98143e-06
      0.332769 0.000755553    6.92978e-05     1.3973e-06 6.48591e-05 5.58144e-06
      0.338454 0.000755723    8.81335e-05    1.58111e-06 8.16839e-05 5.2144e-06
      0.344139 0.000755896    8.72089e-05    1.57221e-06 8.06361e-05 4.87709e-06
      0.349824 0.000756072    6.1544e-05    1.31331e-06 6.06712e-05 4.56666e-06
      0.355509 0.000756251    3.63711e-05    3.42188e-07 3.47349e-05 4.28073e-06
      0.366877 0.000756617    1.55533e-05     2.25575e-07 1.5192e-05   3.77294e-06
      0.378245 0.000756994    2.98107e-05     3.20094e-07  2.96102e-05  3.3383e-06
      0.389613 0.000757383    2.0037e-05    2.57705e-07 2.14859e-05 2.96459e-06
      0.400979 0.000757782    5.56454e-06      1.33336e-07 6.67554e-06 2.64185e-06
      0.412345 0.000758193    1.09164e-05    1.87369e-07 1.17671e-05  2.36195e-06
      0.42371 0.000758615     1.3823e-05    2.1157e-07 1.45144e-05 2.11823e-06
      0.435074 0.000759049    5.85682e-06    1.3669e-07 6.03956e-06  1.90523e-06
      0.446437 0.000759493     4.04303e-06    1.14208e-07 3.87721e-06 1.71841e-06
      0.457799 0.000759949    7.40615e-06    1.53745e-07 7.11569e-06 1.554e-06
       0.4649 0.00076024    6.56573e-06    7.24209e-08 6.35227e-06 1.46117e-06
      0.476261 0.000760714     2.3004e-06    4.1948e-08 2.23341e-06 1.32671e-06
      0.487621 0.000761199    1.90608e-06    3.82458e-08 1.80091e-06 1.2074e-06
      0.49898 0.000761694    3.08152e-06    4.83506e-08 3.15238e-06 1.10125e-06
      0.510338 0.000762202    1.87371e-06    3.79812e-08 1.83195e-06 1.00655e-06
      0.521695 0.00076272    5.63896e-07    2.26878e-08 5.85054e-07 9.21866e-07
      0.533051 0.000763249    1.1845e-06    3.0857e-08 1.23797e-06 8.4594e-07
      0.544406 0.000763789    1.26304e-06    3.16686e-08 1.29107e-06 7.77708e-07
      0.55576 0.00076434    4.4886e-07    2.05375e-08 4.14545e-07 7.16255e-07
      0.567113 0.000764901    3.73655e-07    1.86391e-08 3.52175e-07 6.60778e-07
      0.574208 0.000765258    6.14205e-07     1.45636e-08 6.09854e-07 6.28849e-07
      0.585559 0.000765838    5.65676e-07    1.30794e-08 5.48382e-07 5.81682e-07
      0.596909 0.000766428    1.37431e-07    8.50934e-09 1.38516e-07 5.38886e-07
      0.608258 0.000767029    1.81454e-07    9.03174e-09 1.76412e-07 4.99982e-07
      0.619605  0.000767641    3.32922e-07     1.07794e-08  3.11558e-07 4.64552e-07
      0.630952 0.000768264    1.4624e-07    8.4887e-09  1.37486e-07 4.32232e-07
      0.642297 0.000768897     3.78274e-08    6.79982e-09 3.76468e-08 4.02698e-07
      0.653641 0.000769541    1.40923e-07    8.31477e-09 1.31645e-07 3.75668e-07
      0.664983  0.000770196    1.01046e-07    7.88353e-09  1.12585e-07 3.5089e-07
      0.676325 0.000770861    1.58611e-08    6.43878e-09 1.94479e-08 3.28144e-07
      0.687665 0.000771537     6.11006e-08    7.10095e-09 3.9549e-08 3.07232e-07
       0.699003 0.000772224    6.23623e-08    7.10715e-09 6.88676e-08 2.87979e-07
      0.71034 0.000772921    2.36562e-08     6.40672e-09 2.43471e-08 2.70231e-07
      0.721676 0.000773628    1.04087e-08    6.14912e-09 8.79554e-09 2.53847e-07
      0.733011 0.000774346    2.68779e-08    6.50839e-09 3.27222e-08 2.38705e-07
      0.744344 0.000775074    1.20083e-08    6.29982e-09 2.30749e-08 2.24692e-07
      0.755675  0.000775813    7.36729e-09    6.1952e-09 4.2867e-09 2.11709e-07
      0.767006 0.000776562    1.20534e-08    6.15267e-09 1.30414e-08 1.99667e-07
      0.778334 0.000777321    6.19559e-09    6.16892e-09 1.65763e-08 1.88484e-07
      0.789661 0.000778091    9.0796e-09    6.14868e-09 6.06475e-09 1.78638e-07