Folder: Nafion/Fits/X-Ray/Interface/4 Pt-Air

Note: Fits/X-Ray/Interface/4 Pt-Air/R1XR Pt-Air-err.json
{
  "Interface interface": {
    "best": 3.526033135807476,
    "index": 16,
    "integer": false,
    "label": "Interface interface",
    "mean": 3.525937649402221,
    "median": 3.525907367211133,
    "p68": [
      3.5208031795442305,
      3.5308376720056747
    ],
    "p68_range": [
      3.5208031795442305,
      3.5308376720056747
    ],
    "p95": [
      3.516323161144803,
      3.5352830631866827
    ],
    "p95_range": [
      3.516323161144803,
      3.5352830631866827
    ],
    "std": 0.004841189387120798
  },
  "Interface irho": {
    "best": -6.351580393038969,
    "index": 17,
    "integer": false,
    "label": "Interface irho",
    "mean": -6.663198269848265,
    "median": -6.865642915534461,
    "p68": [
      -11.487471183713538,
      -1.8046387438012146
    ],
    "p68_range": [
      -11.487471183713538,
      -1.8046387438012146
    ],
    "p95": [
      -13.525234813620054,
      0.3489482967278913
    ],
    "p95_range": [
      -13.525234813620054,
      0.3489482967278913
    ],
    "std": 4.081279483366264
  },
  "Interface rho": {
    "best": 126.89155782536793,
    "index": 18,
    "integer": false,
    "label": "Interface rho",
    "mean": 126.87107964639473,
    "median": 126.87179720356464,
    "p68": [
      126.33607803770023,
      127.42792447105724
    ],
    "p68_range": [
      126.33607803770023,
      127.42792447105724
    ],
    "p95": [
      125.72367678158417,
      127.93169775515473
    ],
    "p95_range": [
      125.72367678158417,
      127.93169775515473
    ],
    "std": 0.5550094936487664
  },
  "Interface thickness": {
    "best": 10.266684373162759,
    "index": 19,
    "integer": false,
    "label": "Interface thickness",
    "mean": 10.26589236318289,
    "median": 10.258786635436008,
    "p68": [
      9.993088613166888,
      10.535991211488847
    ],
    "p68_range": [
      9.993088613166888,
      10.535991211488847
    ],
    "p95": [
      9.753038918000446,
      10.808305051443401
    ],
    "p95_range": [
      9.753038918000446,
      10.808305051443401
    ],
    "std": 0.2669384194817678
  },
  "Permalloy interface": {
    "best": 6.567149628851836,
    "index": 8,
    "integer": false,
    "label": "Permalloy interface",
    "mean": 6.565727304817996,
    "median": 6.565564842798923,
    "p68": [
      6.55146555968927,
      6.579782973518061
    ],
    "p68_range": [
      6.55146555968927,
      6.579782973518061
    ],
    "p95": [
      6.539068306502248,
      6.592887247172966
    ],
    "p95_range": [
      6.539068306502248,
      6.592887247172966
    ],
    "std": 0.013947641836702274
  },
  "Permalloy irho": {
    "best": 3.0870891029136445,
    "index": 9,
    "integer": false,
    "label": "Permalloy irho",
    "mean": 3.0382509520741765,
    "median": 3.0404878541446063,
    "p68": [
      2.7986511624867223,
      3.268769898

Note: Fits/X-Ray/Interface/4 Pt-Air/R1XR Pt-Air-expt.json
{"type": "Experiment", "sample": {"type": "Stack", "layers": [{"name": "Silicon", "type": "Slab", "thickness": {"type": "Parameter", "name": "Silicon thickness", "value": 0.0, "fixed": true, "fittable": true, "bounds": {"type": "Unbounded", "limits": [0, Infinity]}}, "interface": {"type": "Parameter", "name": "Silicon interface", "value": 14.280775207100703, "fixed": false, "fittable": true, "bounds": {"type": "Bounded", "limits": [8.65, 28.65]}}, "material": {"type": "SLD", "name": "Silicon", "rho": {"type": "Parameter", "name": "Silicon rho", "value": 20.07, "fixed": true, "fittable": true, "bounds": {"type": "Unbounded", "limits": [-Infinity, Infinity]}}, "irho": {"type": "Parameter", "name": "Silicon irho", "value": 0.458, "fixed": true, "fittable": true, "bounds": {"type": "Unbounded", "limits": [-Infinity, Infinity]}}}}, {"name": "SiOx", "type": "Slab", "thickness": {"type": "Parameter", "name": "SiOx thickness", "value": 38.59777988185385, "fixed": false, "fittable": true, "bounds": {"type": "Bounded", "limits": [0.0, 140.0]}}, "interface": {"type": "Parameter", "name": "SiOx interface", "value": 3.43531168193277, "fixed": false, "fittable": true, "bounds": {"type": "Bounded", "limits": [0.0, 13.224]}}, "material": {"type": "SLD", "name": "SiOx", "rho": {"type": "Parameter", "name": "SiOx rho", "value": 24.857452819740644, "fixed": false, "fittable": true, "bounds": {"type": "Bounded", "limits": [15.0, 40.0]}}, "irho": {"type": "Parameter", "name": "SiOx irho", "value": 7.696568615240926, "fixed": false, "fittable": true, "bounds": {"type": "Bounded", "limits": [-0.5, 15.0]}}}}, {"name": "Permalloy", "type": "Slab", "thickness": {"type": "Parameter", "name": "Permalloy thickness", "value": 107.84526259773548, "fixed": false, "fittable": true, "bounds": {"type": "Bounded", "limits": [10.0, 200.0]}}, "interface": {"type": "Parameter", "name": "Permalloy interface", "value": 6.567149628851836, "fixed": false, "fittable": true, "bounds": {"type": "Bounded", "limits": [0.0, 16.751]}}, "material": {"type": "SLD", "name": "Permalloy", "rho": {"type": "Parameter", "name": "Permalloy rho", "value": 62.25080419877612, "fixed": false, "fittable": true, "bounds": {"type": "Bounded", "limits": [60.0, 70.0]}}, "irho": {"type": "Parameter", "name": "Permalloy irho", "value": 3.0870891029136445, "fixed": false, "fittable": true, "bounds": {"type": "Bounded", "limits": [-3.0, 10.0]}}}}, {"name": "Platinum", "type": "Slab", "thickness": {"type": "Parameter", "name": "Platinum thickness", "value": 39.67816799085595, "fixed": false, "fittable": true, "bounds": {"type": "Bounded", "limits": [10.0, 150.0]}}, "interface": {"type": "Parameter", "name": "Platinum interface", "value": 5.201865736019844, "fixed": false, "fittable": true, "bounds": {"type": "Bounded", "limits": [0.0, 13.657]}}, "material": {"type": "SLD", "name": "Platinum", "rho": {"type": "Parameter", "name": "Platinum rho", "value": 130.02758805515768, "fixed": false, "fittable": true, "bounds": {

Note: README.md
# Nafion
This repository contains the data, fits, and code used to determine the structure of Nafion at the surface of a platinum electrode.

# Structure
The repository is organized into five subrepositories that contain:

1. **Analysis-** summary tables and a presentation of the results.
2. **Figures-** PDFs of the best fit profiles and reflectivity.
3. **Fits-** the Refl1D output files for each fit,
4. **Refl Files-** raw Refl files from the data cleaning and reduction step.
5. **Scripts-** Python fitting scripts used in conjunction with Refl1D.

The **Analysis** folder is further divided into folders named after the experimental conditions, and an additional **Active** folder that contains the current best fit models.

File: R1XR Pt-Air-refl.dat
# intensity: 1.01637
# background: 8.24921e-09
#           Q (1/A)             dQ (1/A)                    R                   dR               theory              fresnel
     0.0483642 0.000750703       0.951435     0.00501004    0.930773   0.0187966
      0.0540541 0.000750729       0.891643     0.00477517    0.895376   0.0113717
     0.0597439 0.000750758       0.797485     0.00440218    0.808591  0.00700602
     0.0654336 0.00075079       0.611078     0.00364825    0.623083  0.00458762
     0.0711234 0.000750825        0.478614      0.00309314    0.478254  0.00314518
     0.0768131 0.000750863       0.459408     0.0030107    0.455053  0.0022356
     0.0825028 0.000750903       0.407801     0.00278597     0.404973  0.00163635
     0.0881924 0.000750947       0.315984     0.00237106    0.308951  0.00122728
     0.093882 0.000750993       0.203718     0.00182082    0.202063 0.000939646
     0.0995715 0.000751043       0.126109     0.00138567    0.124724 0.000732285
      0.105261 0.000751095       0.0864528     0.00112693   0.0875782 0.000579544
      0.11095 0.00075115      0.0717636     0.00101977   0.0711375 0.000464913
      0.11664 0.000751208      0.056803    0.000900912   0.0559555 0.000377456
      0.122329  0.000751269      0.0366782    0.000717022   0.0369349 0.000309752
      0.128018 0.000751333      0.0191642    0.000513886   0.018778 0.000256653
      0.133708 0.0007514       0.00715996    4.06431e-05  0.00717845 0.000214517
      0.139397 0.00075147      0.00323263    2.39623e-05  0.00324091 0.000180724
      0.145086 0.000751542      0.00369498    2.6159e-05  0.00365163 0.00015336
      0.150775 0.000751618     0.00441552    2.93399e-05  0.00440409  0.000131005
      0.156464  0.000751696     0.00376296    2.64656e-05  0.00372497 0.000112595
      0.162153 0.000751777      0.00229319    1.95261e-05  0.00224977 9.7319e-05
      0.167841 0.000751861     0.00142039    1.48132e-05  0.00140342 8.45571e-05
      0.17353 0.000751949     0.00180153    1.69586e-05  0.00181942 7.38267e-05
      0.179219 0.000752038     0.00289959    2.24921e-05  0.00295206 6.47509e-05
      0.184907 0.000752131      0.00375126      2.6414e-05  0.00377794 5.70319e-05
      0.190596 0.000752227     0.00367332    2.60639e-05  0.00368722 5.04327e-05
      0.196284 0.000752326     0.00285421    2.22767e-05  0.00282862 4.47635e-05
      0.201972 0.000752427      0.0018165    1.70415e-05  0.00181956  3.9871e-05
      0.20766  0.000752531      0.00119982    1.34865e-05  0.00120503 3.56306e-05
      0.213348 0.000752639     0.00109143     6.38196e-06  0.00110956 3.19406e-05
       0.219036 0.000752749     0.00125787    7.44613e-06   0.00127304 2.87172e-05
      0.224724 0.000752862     0.00132416    7.71661e-06  0.00134114 2.58913e-05
      0.230412 0.000752978       0.00113446    6.93603e-06  0.00113892 2.34053e-05
      0.2361  0.000753096    0.000743413     5.2542e-06 0.00074474 2.12113e-05
      0.241787 0.000753218    0.000363751    3.41239e-06 0.000369159 1.9269e-05
      0.247474 0.000753342    0.000174183    2.26555e-06 0.000173916  1.75445e-05
      0.253162 0.00075347     0.000172904    2.25594e-06 0.000171208 1.6009e-05
      0.258849 0.0007536    0.000256498     2.79959e-06 0.000252733 1.46383e-05
      0.264536  0.000753733     0.000299363    3.05329e-06 0.000295164 1.34114e-05
       0.270223 0.000753869    0.000248255    2.7485e-06 0.000248817 1.23107e-05
       0.27591 0.000754008    0.00014367    2.0428e-06 0.000151652   1.13209e-05
      0.281596  0.00075415    7.62973e-05    1.46707e-06 7.74507e-05 1.04288e-05
      0.287283 0.000754294    6.87165e-05    1.38989e-06 7.09436e-05 9.62301e-06
      0.292969  0.000754442     0.000122563    1.87778e-06 0.00011934 8.89374e-06
      0.298655 0.000754592      0.000173893    2.26371e-06 0.000172384 8.23242e-06
      0.304341  0.000754745    0.000186584    2.35136e-06 0.000185689  7.63157e-06
      0.310027 0.000754901    0.000150859    2.09721e-06 0.000151182 7.08467e-06
      0.315713 0.00075506    9.86801e-05    1.67677e-06  9.56059e-05 6.586e-06
      0.321398 0.000755221    5.70398e-05    1.26513e-06 5.48005e-05 6.13055e-06
      0.327084   0.000755386    5.10703e-05    1.1973e-06 4.69058e-05 5.7139e-06
      0.332769 0.000755553    6.92978e-05     1.3973e-06 6.35304e-05 5.33213e-06
      0.338454 0.000755723    8.81335e-05    1.58111e-06 8.13064e-05 4.9818e-06
      0.344139 0.000755896    8.72089e-05    1.57221e-06 8.14433e-05 4.65985e-06
      0.349824 0.000756072    6.1544e-05    1.31331e-06 6.19239e-05  4.36357e-06
      0.355509 0.000756251    3.63711e-05    3.42188e-07 3.54705e-05 4.09065e-06
      0.366877 0.000756617    1.55533e-05     2.25575e-07 1.44855e-05 3.606e-06
      0.378245 0.000756994    2.98107e-05     3.20094e-07 2.96363e-05 3.19115e-06
      0.389613 0.000757383    2.0037e-05    2.57705e-07  2.19545e-05 2.83447e-06
      0.400979 0.000757782    5.56454e-06      1.33336e-07 6.44103e-06 2.52642e-06
      0.412345 0.000758193    1.09164e-05    1.87369e-07   1.17453e-05 2.25927e-06
      0.42371 0.000758615     1.3823e-05    2.1157e-07 1.48756e-05 2.02665e-06
      0.435074 0.000759049    5.85682e-06    1.3669e-07 6.03007e-06 1.82335e-06
      0.446437 0.000759493     4.04303e-06    1.14208e-07 3.82156e-06 1.64504e-06
      0.457799 0.000759949    7.40615e-06    1.53745e-07 7.29627e-06 1.48812e-06
       0.4649 0.00076024    6.56573e-06    7.24209e-08 6.46854e-06 1.39952e-06
      0.476261 0.000760714     2.3004e-06    4.1948e-08 2.16944e-06 1.27118e-06
      0.487621 0.000761199    1.90608e-06    3.82458e-08 1.8432e-06 1.1573e-06
      0.49898 0.000761694    3.08152e-06    4.83506e-08 3.21078e-06 1.05599e-06
      0.510338 0.000762202    1.87371e-06    3.79812e-08  1.77702e-06 9.65609e-07
      0.521695 0.00076272    5.63896e-07    2.26878e-08 5.98085e-07 8.84778e-07
      0.533051 0.000763249    1.1845e-06    3.0857e-08 1.28418e-06 8.12309e-07
      0.544406 0.000763789    1.26304e-06    3.16686e-08 1.24371e-06 7.47186e-07
      0.55576 0.00076434    4.4886e-07    2.05375e-08 3.9932e-07 6.88531e-07
      0.567113 0.000764901    3.73655e-07    1.86391e-08 3.92702e-07 6.35581e-07
      0.574208 0.000765258    6.14205e-07     1.45636e-08 6.12918e-07 6.05106e-07
      0.585559 0.000765838    5.65676e-07    1.30794e-08 4.99139e-07 5.60088e-07
      0.596909 0.000766428    1.37431e-07    8.50934e-09 1.4673e-07 5.19241e-07
      0.608258 0.000767029    1.81454e-07    9.03174e-09 1.93791e-07 4.82108e-07
      0.619605  0.000767641    3.32922e-07     1.07794e-08 2.76223e-07 4.48293e-07
      0.630952 0.000768264    1.4624e-07    8.4887e-09 1.25366e-07 4.17444e-07
      0.642297 0.000768897     3.78274e-08    6.79982e-09 5.66008e-08 3.89256e-07
      0.653641 0.000769541    1.40923e-07    8.31477e-09 1.16932e-07 3.63457e-07
      0.664983  0.000770196    1.01046e-07    7.88353e-09 9.34114e-08 3.39808e-07
      0.676325 0.000770861    1.58611e-08    6.43878e-09 3.07602e-08 3.18097e-07
      0.687665 0.000771537     6.11006e-08    7.10095e-09 4.0231e-08 2.98138e-07
       0.699003 0.000772224    6.23623e-08    7.10715e-09 5.38183e-08 2.79762e-07
      0.71034 0.000772921    2.36562e-08     6.40672e-09 2.7263e-08 2.62822e-07
      0.721676 0.000773628    1.04087e-08    6.14912e-09 1.58783e-08 2.47185e-07
      0.733011 0.000774346    2.68779e-08    6.50839e-09  2.59535e-08 2.32732e-07
      0.744344 0.000775074    1.20083e-08    6.29982e-09  2.17924e-08 2.19357e-07
      0.755675  0.000775813    7.36729e-09    6.1952e-09 1.15782e-08 2.06966e-07
      0.767006 0.000776562    1.20534e-08    6.15267e-09 1.31411e-08 1.95472e-07
      0.778334 0.000777321    6.19559e-09    6.16892e-09 1.52314e-08 1.84799e-07
      0.789661 0.000778091    9.0796e-09    6.14868e-09 1.12946e-08 1.75401e-07