Folder: Nafion

Note: Lamellae Test-expt.json
{"type": "Experiment", "sample": {"type": "Stack", "layers": [{"name": "Silicon", "type": "Slab", "thickness": {"type": "Parameter", "name": "Silicon thickness", "value": 5000, "fixed": true, "fittable": true, "bounds": {"type": "Unbounded", "limits": [0, Infinity]}}, "interface": {"type": "Parameter", "name": "Silicon interface", "value": 22.06509701220138, "fixed": false, "fittable": true, "bounds": {"type": "Bounded", "limits": [10, 100]}}, "material": {"type": "SLD", "name": "Silicon", "rho": {"type": "Parameter", "name": "Silicon rho", "value": 2.071, "fixed": true, "fittable": true, "bounds": {"type": "Unbounded", "limits": [-Infinity, Infinity]}}, "irho": {"type": "Parameter", "name": "Silicon irho", "value": 0, "fixed": true, "fittable": true, "bounds": {"type": "Unbounded", "limits": [-Infinity, Infinity]}}}}, {"name": "SiOx", "type": "Slab", "thickness": {"type": "Parameter", "name": "SiOx thickness", "value": 153.2498799770836, "fixed": false, "fittable": true, "bounds": {"type": "Bounded", "limits": [25, 200]}}, "interface": {"type": "Parameter", "name": "SiOx interface", "value": 3.403928578197822, "fixed": false, "fittable": true, "bounds": {"type": "Bounded", "limits": [0.0, 20]}}, "material": {"type": "SLD", "name": "SiOx", "rho": {"type": "Parameter", "name": "SiOx rho", "value": 2.58684365418132, "fixed": false, "fittable": true, "bounds": {"type": "Bounded", "limits": [0.7, 5.0]}}, "irho": {"type": "Parameter", "name": "SiOx irho", "value": 0, "fixed": true, "fittable": true, "bounds": {"type": "Unbounded", "limits": [-Infinity, Infinity]}}}}, {"name": "Permalloy", "type": "Slab", "thickness": {"type": "Parameter", "name": "Permalloy thickness", "value": 108.14897618215541, "fixed": false, "fittable": true, "bounds": {"type": "Bounded", "limits": [98, 115]}}, "interface": {"type": "Parameter", "name": "Permalloy interface", "value": 9.530374629671988, "fixed": false, "fittable": true, "bounds": {"type": "Bounded", "limits": [0.0, 20]}}, "material": {"type": "SLD", "name": "Permalloy", "rho": {"type": "Parameter", "name": "Permalloy rho", "value": 8.844450604622983, "fixed": false, "fittable": true, "bounds": {"type": "Bounded", "limits": [8.239, 10.239]}}, "irho": {"type": "Parameter", "name": "Permalloy irho", "value": 0, "fixed": true, "fittable": true, "bounds": {"type": "Unbounded", "limits": [-Infinity, Infinity]}}}}, {"name": "Platinum", "type": "Slab", "thickness": {"type": "Parameter", "name": "Platinum thickness", "value": 48.127075800235104, "fixed": false, "fittable": true, "bounds": {"type": "Bounded", "limits": [30, 70]}}, "interface": {"type": "Parameter", "name": "Platinum interface", "value": 0.00031925298463765094, "fixed": false, "fittable": true, "bounds": {"type": "Bounded", "limits": [0.0, 10.0]}}, "material": {"type": "SLD", "name": "Platinum", "rho": {"type": "Parameter", "name": "Platinum rho", "value": 6.52617016830831, "fixed": false, "fittable": true, "bounds": {"type": "Bounded", "limits": [5.349, 7.

Note: R1XR_UpdatedSLD-err.json
{
  "Permalloy interface": {
    "best": 6.5879331272894905,
    "index": 7,
    "integer": false,
    "label": "Permalloy interface",
    "mean": 6.587861257980198,
    "median": 6.58819511598932,
    "p68": [
      6.575421661930513,
      6.60041038958321
    ],
    "p68_range": [
      6.575421661930513,
      6.60041038958321
    ],
    "p95": [
      6.562719148621453,
      6.613069192003546
    ],
    "p95_range": [
      6.562719148621453,
      6.613069192003546
    ],
    "std": 0.01266239005769358
  },
  "Permalloy irho": {
    "best": 2.73412040967103,
    "index": 8,
    "integer": false,
    "label": "Permalloy irho",
    "mean": 2.734007702312817,
    "median": 2.7376151724685167,
    "p68": [
      2.5200310913286867,
      2.9513954450372704
    ],
    "p68_range": [
      2.5200310913286867,
      2.9513954450372704
    ],
    "p95": [
      2.3046346317944892,
      3.160753745928013
    ],
    "p95_range": [
      2.3046346317944892,
      3.160753745928013
    ],
    "std": 0.21534541937489196
  },
  "Permalloy rho": {
    "best": 66.41747007992524,
    "index": 9,
    "integer": false,
    "label": "Permalloy rho",
    "mean": 66.42039389038895,
    "median": 66.41316939193949,
    "p68": [
      66.24356550376649,
      66.59838839268795
    ],
    "p68_range": [
      66.24356550376649,
      66.59838839268795
    ],
    "p95": [
      66.06107239610726,
      66.7866510488719
    ],
    "p95_range": [
      66.06107239610726,
      66.7866510488719
    ],
    "std": 0.18303017062416269
  },
  "Permalloy thickness": {
    "best": 108.05713213131403,
    "index": 10,
    "integer": false,
    "label": "Permalloy thickness",
    "mean": 108.05835492288729,
    "median": 108.05864303780197,
    "p68": [
      108.02675245785322,
      108.09021829642258
    ],
    "p68_range": [
      108.02675245785322,
      108.09021829642258
    ],
    "p95": [
      108.00010073889263,
      108.12058360697712
    ],
    "p95_range": [
      108.00010073889263,
      108.12058360697712
    ],
    "std": 0.031292810777114266
  },
  "Pt interface": {
    "best": 3.6934707296209837,
    "index": 11,
    "integer": false,
    "label": "Pt interface",
    "mean": 3.693501745593249,
    "median": 3.6934583191478723,
    "p68": [
      3.6916209452164193,
      3.6954539762856657
    ],
    "p68_range": [
      3.6916209452164193,
      3.6954539762856657
    ],
    "p95": [
      3.6896858653020543,
      3.697478132623389
    ],
    "p95_range": [
      3.6896858653020543,
      3.697478132623389
    ],
    "std": 0.0019607836445835677
  },
  "Pt irho": {
    "best": 11.91398417904357,
    "index": 12,
    "integer": false,
    "label": "Pt irho",
    "mean": 11.910501527417967,
    "median": 11.911297665068108,
    "p68": [
      11.822315607873541,
      11.998870131809063
    ],
    "p68_range": [
     

Note: README.md
# Nafion
This repository contains the data, fits, and code used to determine the structure of Nafion at the surface of a platinum electrode.

# Structure
The repository is organized into five subrepositories that contain:

1. **Analysis-** summary tables and a presentation of the results.
2. **Figures-** PDFs of the best fit profiles and reflectivity.
3. **Fits-** the Refl1D output files for each fit,
4. **Refl Files-** raw Refl files from the data cleaning and reduction step.
5. **Scripts-** Python fitting scripts used in conjunction with Refl1D.

The **Analysis** folder is further divided into folders named after the experimental conditions, and an additional **Active** folder that contains the current best fit models.

File: R1XR_UpdatedSLD-refl.dat
# intensity: 1.07823
# background: 0
#           Q (1/A)             dQ (1/A)                    R                   dR               theory              fresnel
     0.0483642 0.000750703       0.951435     0.00501004     0.92504   0.0199406
      0.0540541 0.000750729       0.891643     0.00477517    0.887427   0.0120637
     0.0597439 0.000750758       0.797485     0.00440218    0.81074  0.00743242
     0.0654336 0.00075079       0.611078     0.00364825    0.645664  0.00486683
     0.0711234 0.000750825        0.478614      0.00309314    0.465692  0.00333659
     0.0768131 0.000750863       0.459408     0.0030107    0.43319  0.00237165
     0.0825028 0.000750903       0.407801     0.00278597    0.393814  0.00173593
     0.0881924 0.000750947       0.315984     0.00237106    0.306206  0.00130196
     0.093882 0.000750993       0.203718     0.00182082     0.202929 0.000996826
     0.0995715 0.000751043       0.126109     0.00138567    0.124483  0.000776845
      0.105261 0.000751095       0.0864528     0.00112693   0.0855651 0.000614808
      0.11095 0.00075115      0.0717636     0.00101977   0.0690344 0.000493199
      0.11664 0.000751208      0.056803    0.000900912    0.0547173 0.00040042
      0.122329  0.000751269      0.0366782    0.000717022   0.0364987 0.000328596
      0.128018 0.000751333      0.0191642    0.000513886   0.0187202 0.000272264
      0.133708 0.0007514       0.00715996    4.06431e-05  0.0071594  0.000227564
      0.139397 0.00075147      0.00323263    2.39623e-05  0.0031327 0.000191714
      0.145086 0.000751542      0.00369498    2.6159e-05  0.00346589 0.000162685
      0.150775 0.000751618     0.00441552    2.93399e-05  0.00420506 0.000138969
      0.156464  0.000751696     0.00376296    2.64656e-05  0.00358006 0.000119439
      0.162153 0.000751777      0.00229319    1.95261e-05  0.00218787  0.000103233
      0.167841 0.000751861     0.00142039    1.48132e-05  0.0014004 8.96946e-05
      0.17353 0.000751949     0.00180153    1.69586e-05   0.00182796 7.83112e-05
      0.179219 0.000752038     0.00289959    2.24921e-05  0.00294101 6.86831e-05
      0.184907 0.000752131      0.00375126      2.6414e-05  0.00374561 6.04942e-05
      0.190596 0.000752227     0.00367332    2.60639e-05  0.00364945 5.34934e-05
      0.196284 0.000752326     0.00285421    2.22767e-05  0.00280109  4.74791e-05
      0.201972 0.000752427      0.0018165    1.70415e-05  0.00180894 4.22889e-05
      0.20766  0.000752531      0.00119982    1.34865e-05  0.00120986 3.77904e-05
      0.213348 0.000752639     0.00109143     6.38196e-06  0.00112399 3.38758e-05
       0.219036 0.000752749     0.00125787    7.44613e-06   0.00128915   3.04562e-05
      0.224724 0.000752862     0.00132416    7.71661e-06  0.00135156 2.74583e-05
      0.230412 0.000752978       0.00113446    6.93603e-06  0.0011406 2.48211e-05
      0.2361  0.000753096    0.000743413     5.2542e-06 0.000740917  2.24935e-05
      0.241787 0.000753218    0.000363751    3.41239e-06 0.000367129 2.0433e-05
      0.247474 0.000753342    0.000174183    2.26555e-06 0.000179869 1.86035e-05
      0.253162 0.00075347     0.000172904    2.25594e-06 0.00018609  1.69746e-05
      0.258849 0.0007536    0.000256498     2.79959e-06 0.000272114 1.55204e-05
      0.264536  0.000753733     0.000299363    3.05329e-06 0.000312832 1.42189e-05
       0.270223 0.000753869    0.000248255    2.7485e-06 0.000261046 1.30512e-05
       0.27591 0.000754008    0.00014367    2.0428e-06 0.000159047 1.20012e-05
      0.281596  0.00075415    7.62973e-05    1.46707e-06 8.35555e-05 1.10547e-05
      0.287283 0.000754294    6.87165e-05    1.38989e-06 7.91832e-05 1.01999e-05
      0.292969  0.000754442     0.000122563    1.87778e-06  0.000130672 9.42628e-06
      0.298655 0.000754592      0.000173893    2.26371e-06 0.000185073 8.72471e-06
      0.304341  0.000754745    0.000186584    2.35136e-06 0.000196936 8.08729e-06
      0.310027 0.000754901    0.000150859    2.09721e-06  0.000159159 7.5071e-06
      0.315713 0.00075506    9.86801e-05    1.67677e-06 0.000100475 6.97809e-06
      0.321398 0.000755221    5.70398e-05    1.26513e-06 5.82427e-05 6.49492e-06
      0.327084   0.000755386    5.10703e-05    1.1973e-06 5.0768e-05 6.0529e-06
      0.332769 0.000755553    6.92978e-05     1.3973e-06 6.86291e-05 5.6479e-06
      0.338454 0.000755723    8.81335e-05    1.58111e-06 8.71311e-05 5.27625e-06
      0.344139 0.000755896    8.72089e-05    1.57221e-06 8.67692e-05 4.93471e-06
      0.349824 0.000756072    6.1544e-05    1.31331e-06 6.57569e-05 4.62039e-06
      0.355509 0.000756251    3.63711e-05    3.42188e-07 3.76581e-05 4.33087e-06
      0.366877 0.000756617    1.55533e-05     2.25575e-07 1.55161e-05 3.81672e-06
      0.378245 0.000756994    2.98107e-05     3.20094e-07 3.14527e-05 3.37662e-06
      0.389613 0.000757383    2.0037e-05    2.57705e-07 2.31932e-05 2.99823e-06
      0.400979 0.000757782    5.56454e-06      1.33336e-07 6.48174e-06 2.67143e-06
      0.412345 0.000758193    1.09164e-05    1.87369e-07 1.17873e-05  2.38802e-06
      0.42371 0.000758615     1.3823e-05    2.1157e-07 1.51964e-05 2.14125e-06
      0.435074 0.000759049    5.85682e-06    1.3669e-07 5.97613e-06 1.92558e-06
      0.446437 0.000759493     4.04303e-06    1.14208e-07 3.50281e-06 1.73641e-06
      0.457799 0.000759949    7.40615e-06    1.53745e-07 7.18003e-06 1.56994e-06
       0.4649 0.00076024    6.56573e-06    7.24209e-08  6.4383e-06  1.47595e-06
      0.476261 0.000760714     2.3004e-06    4.1948e-08 2.01176e-06 1.3398e-06
      0.487621 0.000761199    1.90608e-06    3.82458e-08 1.5866e-06 1.21899e-06
      0.49898 0.000761694    3.08152e-06    4.83506e-08 3.05973e-06 1.11151e-06
      0.510338 0.000762202    1.87371e-06    3.79812e-08 1.67361e-06 1.01563e-06
      0.521695 0.00076272    5.63896e-07    2.26878e-08 4.33665e-07 9.29876e-07
      0.533051 0.000763249    1.1845e-06    3.0857e-08  1.12879e-06  8.52997e-07
      0.544406 0.000763789    1.26304e-06    3.16686e-08 1.15102e-06  7.8391e-07
      0.55576 0.00076434    4.4886e-07    2.05375e-08 3.10969e-07  7.21685e-07
      0.567113 0.000764901    3.73655e-07    1.86391e-08 2.90425e-07 6.65512e-07
      0.574208 0.000765258    6.14205e-07     1.45636e-08 5.24491e-07 6.33183e-07
      0.585559 0.000765838    5.65676e-07    1.30794e-08 4.43563e-07 5.85425e-07
      0.596909 0.000766428    1.37431e-07    8.50934e-09  9.48079e-08 5.42092e-07
      0.608258 0.000767029    1.81454e-07    9.03174e-09 1.3834e-07 5.02699e-07
      0.619605  0.000767641    3.32922e-07     1.07794e-08 2.35575e-07 4.66825e-07
      0.630952 0.000768264    1.4624e-07    8.4887e-09 9.59449e-08 4.34099e-07
      0.642297 0.000768897     3.78274e-08    6.79982e-09  2.54766e-08 4.04195e-07
      0.653641 0.000769541    1.40923e-07    8.31477e-09 8.8605e-08 3.76826e-07
      0.664983  0.000770196    1.01046e-07    7.88353e-09 7.31302e-08 3.51738e-07
      0.676325 0.000770861    1.58611e-08    6.43878e-09 1.25652e-08 3.28706e-07
      0.687665 0.000771537     6.11006e-08    7.10095e-09 2.15315e-08 3.07532e-07
       0.699003 0.000772224    6.23623e-08    7.10715e-09 3.82837e-08 2.88038e-07
      0.71034 0.000772921    2.36562e-08     6.40672e-09  1.452e-08 2.70067e-07
      0.721676 0.000773628    1.04087e-08    6.14912e-09 3.03902e-09 2.53478e-07
      0.733011 0.000774346    2.68779e-08    6.50839e-09 1.3643e-08 2.38145e-07
      0.744344 0.000775074    1.20083e-08    6.29982e-09 1.11699e-08 2.23957e-07
      0.755675  0.000775813    7.36729e-09    6.1952e-09 1.5029e-09 2.10811e-07
      0.767006 0.000776562    1.20534e-08    6.15267e-09 2.96575e-09 1.98617e-07
      0.778334 0.000777321    6.19559e-09    6.16892e-09 5.63911e-09 1.87294e-07
      0.789661 0.000778091    9.0796e-09    6.14868e-09 2.25964e-09  1.77325e-07