Folder: Nafion/Fits/X-Ray/Interfaces/1 Silicon-SiOx

Note: Fits/X-Ray/Interfaces/1 Silicon-SiOx/R1XR Silicon-SiOx-err.json
{
  "Interface interface": {
    "best": 14.120230608991852,
    "index": 3,
    "integer": false,
    "label": "Interface interface",
    "mean": 13.972623316301721,
    "median": 14.140559666690308,
    "p68": [
      13.349810894081005,
      14.668178324413374
    ],
    "p68_range": [
      13.349810894081005,
      14.668178324413374
    ],
    "p95": [
      11.741718869437854,
      14.927199331366541
    ],
    "p95_range": [
      11.741718869437854,
      14.927199331366541
    ],
    "std": 0.7926841493073196
  },
  "Interface irho": {
    "best": 3.4592142391886016,
    "index": 4,
    "integer": false,
    "label": "Interface irho",
    "mean": 3.419714017656626,
    "median": 3.442704950571459,
    "p68": [
      3.3522931628548345,
      3.4863836286836842
    ],
    "p68_range": [
      3.3522931628548345,
      3.4863836286836842
    ],
    "p95": [
      3.206442723890519,
      3.4979285320301936
    ],
    "p95_range": [
      3.206442723890519,
      3.4979285320301936
    ],
    "std": 0.07677888637210796
  },
  "Interface rho": {
    "best": 22.219044386793016,
    "index": 5,
    "integer": false,
    "label": "Interface rho",
    "mean": 22.71194903439379,
    "median": 22.40061538526914,
    "p68": [
      22.10358021082055,
      23.3078872270926
    ],
    "p68_range": [
      22.10358021082055,
      23.3078872270926
    ],
    "p95": [
      22.01547386455083,
      25.356690687319738
    ],
    "p95_range": [
      22.01547386455083,
      25.356690687319738
    ],
    "std": 0.8520790430329384
  },
  "Interface thickness": {
    "best": 30.130661264865868,
    "index": 6,
    "integer": false,
    "label": "Interface thickness",
    "mean": 29.457497568805515,
    "median": 29.813947200681532,
    "p68": [
      27.621149531989783,
      31.219964990087362
    ],
    "p68_range": [
      27.621149531989783,
      31.219964990087362
    ],
    "p95": [
      23.93882727225067,
      32.4153841113395
    ],
    "p95_range": [
      23.93882727225067,
      32.4153841113395
    ],
    "std": 2.0472531836642593
  },
  "Permalloy interface": {
    "best": 6.688950575168831,
    "index": 11,
    "integer": false,
    "label": "Permalloy interface",
    "mean": 6.69171760039734,
    "median": 6.691366071199117,
    "p68": [
      6.679881969861848,
      6.70359694632613
    ],
    "p68_range": [
      6.679881969861848,
      6.70359694632613
    ],
    "p95": [
      6.669237309753926,
      6.716208041131089
    ],
    "p95_range": [
      6.669237309753926,
      6.716208041131089
    ],
    "std": 0.011920118238232458
  },
  "Permalloy irho": {
    "best": 0.6869922961074137,
    "index": 12,
    "integer": false,
    "label": "Permalloy irho",
    "mean": 0.6124411717801983,
    "median": 0.6115408838964428,
    "p68": [
      0.48008369881963847,
      0.7525302367025494
    ],
 

Note: README.md
# Nafion
This repository contains the data, fits, and code used to determine the structure of Nafion at the surface of a platinum electrode.

# Structure
The repository is organized into five subrepositories that contain:

1. **Analysis-** summary tables and a presentation of the results.
2. **Figures-** PDFs of the best fit profiles and reflectivity.
3. **Fits-** the Refl1D output files for each fit,
4. **Refl Files-** raw Refl files from the data cleaning and reduction step.
5. **Scripts-** Python fitting scripts used in conjunction with Refl1D.

The **Analysis** folder is further divided into folders named after the experimental conditions, and an additional **Active** folder that contains the current best fit models.

File: R1XR Silicon-SiOx-refl.dat
# intensity: 1.01994
# background: 0
#           Q (1/A)             dQ (1/A)                    R                   dR               theory              fresnel
     0.0483642 0.000750703       0.951435     0.00501004    0.91855   0.0188626
      0.0540541 0.000750729       0.891643     0.00477517    0.892473   0.0114116
     0.0597439 0.000750758       0.797485     0.00440218    0.832881  0.00703062
     0.0654336 0.00075079       0.611078     0.00364825    0.670445  0.00460373
     0.0711234 0.000750825        0.478614      0.00309314    0.467159  0.00315622
     0.0768131 0.000750863       0.459408     0.0030107    0.445793  0.00224344
     0.0825028 0.000750903       0.407801     0.00278597    0.408967  0.00164209
     0.0881924 0.000750947       0.315984     0.00237106    0.319019  0.00123158
     0.093882 0.000750993       0.203718     0.00182082    0.211574 0.000942937
     0.0995715 0.000751043       0.126109     0.00138567    0.128878 0.000734848
      0.105261 0.000751095       0.0864528     0.00112693   0.0875559 0.000581571
      0.11095 0.00075115      0.0717636     0.00101977   0.0705624 0.000466537
      0.11664 0.000751208      0.056803    0.000900912   0.056285  0.000378773
      0.122329  0.000751269      0.0366782    0.000717022   0.0376395 0.000310832
      0.128018 0.000751333      0.0191642    0.000513886   0.0191468 0.000257546
      0.133708 0.0007514       0.00715996    4.06431e-05  0.00713654 0.000215262
      0.139397 0.00075147      0.00323263    2.39623e-05  0.00302233 0.00018135
      0.145086 0.000751542      0.00369498    2.6159e-05  0.00336998 0.00015389
      0.150775 0.000751618     0.00441552    2.93399e-05  0.00408643 0.000131457
      0.156464  0.000751696     0.00376296    2.64656e-05  0.00344921 0.000112982
      0.162153 0.000751777      0.00229319    1.95261e-05  0.00209252 9.76525e-05
      0.167841 0.000751861     0.00142039    1.48132e-05  0.00134645 8.48457e-05
      0.17353 0.000751949     0.00180153    1.69586e-05  0.00178063 7.40777e-05
      0.179219 0.000752038     0.00289959    2.24921e-05  0.0028794 6.497e-05
      0.184907 0.000752131      0.00375126      2.6414e-05   0.00368088 5.72239e-05
      0.190596 0.000752227     0.00367332    2.60639e-05  0.00359756 5.06015e-05
      0.196284 0.000752326     0.00285421    2.22767e-05  0.0027619 4.49124e-05
      0.201972 0.000752427      0.0018165    1.70415e-05  0.0017746 4.00027e-05
      0.20766  0.000752531      0.00119982    1.34865e-05  0.00117923 3.57474e-05
      0.213348 0.000752639     0.00109143     6.38196e-06   0.00110144  3.20445e-05
       0.219036 0.000752749     0.00125787    7.44613e-06  0.00127494 2.88098e-05
      0.224724 0.000752862     0.00132416    7.71661e-06  0.00134015 2.59739e-05
      0.230412 0.000752978       0.00113446    6.93603e-06  0.00112765 2.34792e-05
      0.2361  0.000753096    0.000743413     5.2542e-06 0.000728071 2.12775e-05
      0.241787 0.000753218    0.000363751    3.41239e-06 0.00035901 1.93284e-05
      0.247474 0.000753342    0.000174183    2.26555e-06 0.000178272 1.75978e-05
      0.253162 0.00075347     0.000172904    2.25594e-06   0.000188349  1.6057e-05
      0.258849 0.0007536    0.000256498     2.79959e-06 0.000274254 1.46814e-05
      0.264536  0.000753733     0.000299363    3.05329e-06 0.00031305 1.34502e-05
       0.270223 0.000753869    0.000248255    2.7485e-06 0.000260165 1.23457e-05
       0.27591 0.000754008    0.00014367    2.0428e-06 0.000158594 1.13524e-05
      0.281596  0.00075415    7.62973e-05    1.46707e-06 8.39914e-05 1.04571e-05
      0.287283 0.000754294    6.87165e-05    1.38989e-06  7.97219e-05 9.64852e-06
      0.292969  0.000754442     0.000122563    1.87778e-06  0.000130252  8.91669e-06
      0.298655 0.000754592      0.000173893    2.26371e-06 0.000183316 8.25305e-06
      0.304341  0.000754745    0.000186584    2.35136e-06 0.000194372 7.65009e-06
      0.310027 0.000754901    0.000150859    2.09721e-06 0.000156739 7.10127e-06
      0.315713 0.00075506    9.86801e-05    1.67677e-06 9.88845e-05 6.60085e-06
      0.321398 0.000755221    5.70398e-05    1.26513e-06 5.75242e-05 6.1438e-06
      0.327084   0.000755386    5.10703e-05    1.1973e-06 5.04384e-05  5.72568e-06
      0.332769 0.000755553    6.92978e-05     1.3973e-06 6.81368e-05  5.34257e-06
      0.338454 0.000755723    8.81335e-05    1.58111e-06  8.62655e-05 4.99101e-06
      0.344139 0.000755896    8.72089e-05    1.57221e-06 8.57437e-05 4.66794e-06
      0.349824 0.000756072    6.1544e-05    1.31331e-06 6.49702e-05 4.37061e-06
      0.355509 0.000756251    3.63711e-05    3.42188e-07 3.73725e-05  4.09674e-06
      0.366877 0.000756617    1.55533e-05     2.25575e-07  1.59404e-05 3.61038e-06
      0.378245 0.000756994    2.98107e-05     3.20094e-07  3.17595e-05 3.19408e-06
      0.389613 0.000757383    2.0037e-05    2.57705e-07 2.34282e-05 2.83614e-06
      0.400979 0.000757782    5.56454e-06      1.33336e-07   6.76561e-06 2.52702e-06
      0.412345 0.000758193    1.09164e-05    1.87369e-07 1.19329e-05 2.25892e-06
      0.42371 0.000758615     1.3823e-05    2.1157e-07 1.52678e-05 2.02549e-06
      0.435074 0.000759049    5.85682e-06    1.3669e-07 6.09271e-06 1.82148e-06
      0.446437 0.000759493     4.04303e-06    1.14208e-07 3.58773e-06 1.64254e-06
      0.457799 0.000759949    7.40615e-06    1.53745e-07 7.22369e-06 1.48507e-06
       0.4649 0.00076024    6.56573e-06    7.24209e-08 6.49414e-06 1.39616e-06
      0.476261 0.000760714     2.3004e-06    4.1948e-08 2.08684e-06 1.26737e-06
      0.487621 0.000761199    1.90608e-06    3.82458e-08 1.64537e-06 1.15309e-06
      0.49898 0.000761694    3.08152e-06    4.83506e-08 3.11787e-06 1.05142e-06
      0.510338 0.000762202    1.87371e-06    3.79812e-08 1.73295e-06 9.60722e-07
      0.521695 0.00076272    5.63896e-07    2.26878e-08  4.70164e-07 8.79606e-07
      0.533051 0.000763249    1.1845e-06    3.0857e-08 1.15705e-06 8.06883e-07
      0.544406 0.000763789    1.26304e-06    3.16686e-08 1.1861e-06 7.41531e-07
      0.55576 0.00076434    4.4886e-07    2.05375e-08 3.35266e-07  6.8267e-07
      0.567113 0.000764901    3.73655e-07    1.86391e-08 3.03073e-07 6.29535e-07
      0.574208 0.000765258    6.14205e-07     1.45636e-08 5.39203e-07  5.98953e-07
      0.585559 0.000765838    5.65676e-07    1.30794e-08 4.62108e-07 5.53777e-07
      0.596909 0.000766428    1.37431e-07    8.50934e-09 1.05379e-07  5.12786e-07
      0.608258 0.000767029    1.81454e-07    9.03174e-09 1.44542e-07 4.75523e-07
      0.619605  0.000767641    3.32922e-07     1.07794e-08 2.45349e-07 4.41589e-07
      0.630952 0.000768264    1.4624e-07    8.4887e-09 1.0373e-07 4.10632e-07
      0.642297 0.000768897     3.78274e-08    6.79982e-09 2.84338e-08 3.82344e-07
      0.653641 0.000769541    1.40923e-07    8.31477e-09 9.24305e-08 3.56455e-07
      0.664983  0.000770196    1.01046e-07    7.88353e-09 7.79438e-08 3.32723e-07
      0.676325 0.000770861    1.58611e-08    6.43878e-09 1.47107e-08 3.10936e-07
      0.687665 0.000771537     6.11006e-08    7.10095e-09 2.26974e-08  2.90906e-07
       0.699003 0.000772224    6.23623e-08    7.10715e-09 4.05642e-08 2.72466e-07
      0.71034 0.000772921    2.36562e-08     6.40672e-09 1.61659e-08 2.55467e-07
      0.721676 0.000773628    1.04087e-08    6.14912e-09 3.49336e-09 2.39775e-07
      0.733011 0.000774346    2.68779e-08    6.50839e-09 1.44228e-08  2.25271e-07
      0.744344 0.000775074    1.20083e-08    6.29982e-09 1.21763e-08 2.11849e-07
      0.755675  0.000775813    7.36729e-09    6.1952e-09 1.86694e-09 1.99414e-07
      0.767006 0.000776562    1.20534e-08    6.15267e-09 3.14792e-09 1.8788e-07
      0.778334 0.000777321    6.19559e-09    6.16892e-09 6.0871e-09 1.77169e-07
      0.789661 0.000778091    9.0796e-09    6.14868e-09 2.57727e-09 1.67739e-07