Folder: Nafion/Interfaces/1 SiOx-Permalloy

Note: Interfaces/1 SiOx-Permalloy/R1XR SiOx-Permalloy-expt.json
{"type": "Experiment", "sample": {"type": "Stack", "layers": [{"name": "Silicon", "type": "Slab", "thickness": {"type": "Parameter", "name": "Silicon thickness", "value": 0.0, "fixed": true, "fittable": true, "bounds": {"type": "Bounded", "limits": [0.0, 100.0]}}, "interface": {"type": "Parameter", "name": "Silicon interface", "value": 19.73685453686779, "fixed": false, "fittable": true, "bounds": {"type": "Bounded", "limits": [8.65, 28.65]}}, "material": {"type": "SLD", "name": "Silicon", "rho": {"type": "Parameter", "name": "Silicon rho", "value": 20.068684307983673, "fixed": true, "fittable": true, "bounds": {"type": "Bounded", "limits": [19.07, 21.07]}}, "irho": {"type": "Parameter", "name": "Silicon irho", "value": 0.10001881940173324, "fixed": true, "fittable": true, "bounds": {"type": "Bounded", "limits": [-0.542, 1.458]}}}}, {"name": "SiOx", "type": "Slab", "thickness": {"type": "Parameter", "name": "SiOx thickness", "value": 44.34286785848702, "fixed": false, "fittable": true, "bounds": {"type": "Bounded", "limits": [0.0, 140.55]}}, "interface": {"type": "Parameter", "name": "SiOx interface", "value": 2.4564672061038455, "fixed": false, "fittable": true, "bounds": {"type": "Bounded", "limits": [0.0, 13.224]}}, "material": {"type": "SLD", "name": "SiOx", "rho": {"type": "Parameter", "name": "SiOx rho", "value": 32.95992982134944, "fixed": false, "fittable": true, "bounds": {"type": "Bounded", "limits": [32.94, 34.94]}}, "irho": {"type": "Parameter", "name": "SiOx irho", "value": 7.852004347884745, "fixed": false, "fittable": true, "bounds": {"type": "Bounded", "limits": [5.871, 7.871]}}}}, {"name": "Interface", "type": "Slab", "thickness": {"type": "Parameter", "name": "Interface thickness", "value": 0.7882151701776016, "fixed": false, "fittable": true, "bounds": {"type": "Bounded", "limits": [0.0, 110.0]}}, "interface": {"type": "Parameter", "name": "Interface interface", "value": 4.367533929798077, "fixed": false, "fittable": true, "bounds": {"type": "Bounded", "limits": [0.0, 15.0]}}, "material": {"type": "SLD", "name": "Interface", "rho": {"type": "Parameter", "name": "Interface rho", "value": 49.50179471727207, "fixed": false, "fittable": true, "bounds": {"type": "Bounded", "limits": [49.0, 51.0]}}, "irho": {"type": "Parameter", "name": "Interface irho", "value": 4.449835007160093, "fixed": false, "fittable": true, "bounds": {"type": "Bounded", "limits": [2.45, 4.45]}}}}, {"name": "Permalloy", "type": "Slab", "thickness": {"type": "Parameter", "name": "Permalloy thickness", "value": 107.29316752367703, "fixed": false, "fittable": true, "bounds": {"type": "Bounded", "limits": [8.0, 208.0]}}, "interface": {"type": "Parameter", "name": "Permalloy interface", "value": 6.733932845627157, "fixed": false, "fittable": true, "bounds": {"type": "Bounded", "limits": [0.0, 16.751]}}, "material": {"type": "SLD", "name": "Permalloy", "rho": {"type": "Parameter", "name": "Permalloy rho", "value": 66.8249240962795, "fixed": false, "fittable": true, 

Note: README.md
# Nafion
This repository contains the data, fits, and code used to determine the structure of Nafion at the surface of a platinum electrode.

# Structure
The repository is organized into five subrepositories that contain:

1. **Analysis-** summary tables and a presentation of the results.
2. **Figures-** PDFs of the best fit profiles and reflectivity.
3. **Fits-** the Refl1D output files for each fit,
4. **Refl Files-** raw Refl files from the data cleaning and reduction step.
5. **Scripts-** Python fitting scripts used in conjunction with Refl1D.

The **Analysis** folder is further divided into folders named after the experimental conditions, and an additional **Active** folder that contains the current best fit models.

File: R1XR SiOx-Permalloy-refl.dat
# intensity: 1.04997
# background: 0
#           Q (1/A)             dQ (1/A)                    R                   dR               theory              fresnel
     0.0483642 0.000750703       0.951435     0.00501004    0.944403   0.0180933
      0.0540541 0.000750729       0.891643     0.00477517    0.915979   0.0109907
     0.0597439 0.000750758       0.797485     0.00440218    0.848267  0.00679102
     0.0654336 0.00075079       0.611078     0.00364825    0.664659  0.0044555
     0.0711234 0.000750825        0.478614      0.00309314    0.468158  0.00305881
     0.0768131 0.000750863       0.459408     0.0030107    0.452446  0.00217643
     0.0825028 0.000750903       0.407801     0.00278597    0.409774  0.00159428
     0.0881924 0.000750947       0.315984     0.00237106    0.315307  0.00119645
     0.093882 0.000750993       0.203718     0.00182082    0.207607 0.000916494
     0.0995715 0.000751043       0.126109     0.00138567    0.127625 0.000714526
      0.105261 0.000751095       0.0864528     0.00112693   0.0876879 0.000565674
      0.11095 0.00075115      0.0717636     0.00101977    0.0700111  0.000453909
      0.11664 0.000751208      0.056803    0.000900912   0.0550452 0.000368607
      0.122329  0.000751269      0.0366782    0.000717022   0.0366562 0.000302549
      0.128018 0.000751333      0.0191642    0.000513886    0.0188198 0.000250726
      0.133708 0.0007514       0.00715996    4.06431e-05  0.00715713 0.000209593
      0.139397 0.00075147      0.00323263    2.39623e-05  0.00302263 0.000176597
      0.145086 0.000751542      0.00369498    2.6159e-05  0.003293 0.000149874
      0.150775 0.000751618     0.00441552    2.93399e-05  0.00402291 0.000128039
      0.156464  0.000751696     0.00376296    2.64656e-05  0.00343018 0.000110054
      0.162153 0.000751777      0.00229319    1.95261e-05  0.00209073 9.51296e-05
      0.167841 0.000751861     0.00142039    1.48132e-05  0.00134652 8.26596e-05
      0.17353 0.000751949     0.00180153    1.69586e-05  0.00178285 7.21737e-05
      0.179219 0.000752038     0.00289959    2.24921e-05  0.00287181 6.33038e-05
      0.184907 0.000752131      0.00375126      2.6414e-05  0.00364781 5.57592e-05
      0.190596 0.000752227     0.00367332    2.60639e-05  0.00354759 4.93087e-05
      0.196284 0.000752326     0.00285421    2.22767e-05  0.00272524 4.37669e-05
      0.201972 0.000752427      0.0018165    1.70415e-05  0.0017705 3.8984e-05
      0.20766  0.000752531      0.00119982    1.34865e-05  0.0011964 3.48384e-05
      0.213348 0.000752639     0.00109143     6.38196e-06  0.00111337 3.12306e-05
       0.219036 0.000752749     0.00125787    7.44613e-06  0.0012678 2.80789e-05
      0.224724 0.000752862     0.00132416    7.71661e-06  0.00132171  2.53157e-05
      0.230412 0.000752978       0.00113446    6.93603e-06   0.00111386 2.28849e-05
      0.2361  0.000753096    0.000743413     5.2542e-06 0.000726677 2.07394e-05
      0.241787 0.000753218    0.000363751    3.41239e-06 0.00036579 1.884e-05
      0.247474 0.000753342    0.000174183    2.26555e-06 0.000184549 1.71535e-05
      0.253162 0.00075347     0.000172904    2.25594e-06  0.00018921  1.56519e-05
      0.258849 0.0007536    0.000256498     2.79959e-06 0.000270711 1.43113e-05
      0.264536  0.000753733     0.000299363    3.05329e-06 0.000308999 1.31114e-05
       0.270223 0.000753869    0.000248255    2.7485e-06 0.000258508 1.20349e-05
       0.27591 0.000754008    0.00014367    2.0428e-06 0.000159486 1.10667e-05
      0.281596  0.00075415    7.62973e-05    1.46707e-06 8.5518e-05 1.01941e-05
      0.287283 0.000754294    6.87165e-05    1.38989e-06 7.97855e-05 9.40601e-06
      0.292969  0.000754442     0.000122563    1.87778e-06  0.000128126 8.69269e-06
      0.298655 0.000754592      0.000173893    2.26371e-06 0.00017993 8.04581e-06
      0.304341  0.000754745    0.000186584    2.35136e-06 0.000191368 7.45807e-06
      0.310027 0.000754901    0.000150859    2.09721e-06 0.00015521 6.9231e-06
      0.315713 0.00075506    9.86801e-05    1.67677e-06  9.87586e-05  6.43531e-06
      0.321398 0.000755221    5.70398e-05    1.26513e-06 5.79105e-05 5.98978e-06
      0.327084   0.000755386    5.10703e-05    1.1973e-06 5.04684e-05 5.58219e-06
      0.332769 0.000755553    6.92978e-05     1.3973e-06 6.75554e-05 5.20872e-06
      0.338454 0.000755723    8.81335e-05    1.58111e-06  8.54124e-05 4.86601e-06
      0.344139 0.000755896    8.72089e-05    1.57221e-06 8.51126e-05  4.55106e-06
      0.349824 0.000756072    6.1544e-05    1.31331e-06  6.47949e-05 4.26121e-06
      0.355509 0.000756251    3.63711e-05    3.42188e-07 3.75314e-05 3.99422e-06
      0.366877 0.000756617    1.55533e-05     2.25575e-07 1.60237e-05 3.52008e-06
      0.378245 0.000756994    2.98107e-05     3.20094e-07  3.16699e-05 3.11423e-06
      0.389613 0.000757383    2.0037e-05    2.57705e-07 2.34419e-05 2.76527e-06
      0.400979 0.000757782    5.56454e-06      1.33336e-07 6.74043e-06 2.46389e-06
      0.412345 0.000758193    1.09164e-05    1.87369e-07 1.18942e-05 2.20252e-06
      0.42371 0.000758615     1.3823e-05    2.1157e-07 1.52592e-05 1.97493e-06
      0.435074 0.000759049    5.85682e-06    1.3669e-07 6.01534e-06 1.77602e-06
      0.446437 0.000759493     4.04303e-06    1.14208e-07 3.55841e-06 1.60156e-06
      0.457799 0.000759949    7.40615e-06    1.53745e-07 7.29708e-06 1.44803e-06
       0.4649 0.00076024    6.56573e-06    7.24209e-08 6.53355e-06 1.36134e-06
      0.476261 0.000760714     2.3004e-06    4.1948e-08 2.02664e-06 1.23577e-06
      0.487621 0.000761199    1.90608e-06    3.82458e-08 1.65632e-06 1.12435e-06
      0.49898 0.000761694    3.08152e-06    4.83506e-08 3.1932e-06 1.02522e-06
      0.510338 0.000762202    1.87371e-06    3.79812e-08  1.71987e-06  9.36784e-07
      0.521695 0.00076272    5.63896e-07    2.26878e-08 4.4107e-07  8.57694e-07
      0.533051 0.000763249    1.1845e-06    3.0857e-08 1.20595e-06 7.86785e-07
      0.544406 0.000763789    1.26304e-06    3.16686e-08 1.21237e-06 7.23064e-07
      0.55576 0.00076434    4.4886e-07    2.05375e-08 3.07018e-07 6.65671e-07
      0.567113 0.000764901    3.73655e-07    1.86391e-08 3.13952e-07 6.13861e-07
      0.574208 0.000765258    6.14205e-07     1.45636e-08 5.75955e-07  5.84041e-07
      0.585559 0.000765838    5.65676e-07    1.30794e-08 4.73629e-07 5.39992e-07
      0.596909 0.000766428    1.37431e-07    8.50934e-09 8.91712e-08 5.00023e-07
      0.608258 0.000767029    1.81454e-07    9.03174e-09 1.56808e-07 4.63689e-07
      0.619605  0.000767641    3.32922e-07     1.07794e-08 2.65605e-07 4.306e-07
      0.630952 0.000768264    1.4624e-07    8.4887e-09 9.86158e-08 4.00415e-07
      0.642297 0.000768897     3.78274e-08    6.79982e-09 2.60396e-08 3.72832e-07
      0.653641 0.000769541    1.40923e-07    8.31477e-09 1.061e-07 3.47587e-07
      0.664983  0.000770196    1.01046e-07    7.88353e-09 8.24415e-08 3.24446e-07
      0.676325 0.000770861    1.58611e-08    6.43878e-09 1.02915e-08 3.03202e-07
      0.687665 0.000771537     6.11006e-08    7.10095e-09 2.72219e-08 2.83671e-07
       0.699003 0.000772224    6.23623e-08    7.10715e-09 4.72032e-08 2.6569e-07
      0.71034 0.000772921    2.36562e-08     6.40672e-09 1.51138e-08 2.49114e-07
      0.721676 0.000773628    1.04087e-08    6.14912e-09 3.20928e-09 2.33812e-07
      0.733011 0.000774346    2.68779e-08    6.50839e-09 1.85858e-08 2.1967e-07
      0.744344 0.000775074    1.20083e-08    6.29982e-09 1.37228e-08 2.06582e-07
      0.755675  0.000775813    7.36729e-09    6.1952e-09 9.47096e-10 1.94457e-07
      0.767006 0.000776562    1.20534e-08    6.15267e-09 4.51849e-09 1.83209e-07
      0.778334 0.000777321    6.19559e-09    6.16892e-09 7.97225e-09 1.72765e-07
      0.789661 0.000778091    9.0796e-09    6.14868e-09 2.56797e-09 1.63569e-07