Folder: Nafion/Interfaces/2 Permalloy-Pt

Note: Interfaces/2 Permalloy-Pt/R1XR Permalloy-Pt-expt.json
{"type": "Experiment", "sample": {"type": "Stack", "layers": [{"name": "Silicon", "type": "Slab", "thickness": {"name": "Silicon thickness", "type": "Parameter", "value": 0.0003911828553694555, "fixed": false, "bounds": {"type": "Bounded", "limits": [0.0, 100.0]}}, "interface": {"name": "Silicon interface", "type": "Parameter", "value": 19.70462068893127, "fixed": false, "bounds": {"type": "Bounded", "limits": [8.65, 28.65]}}, "material": {"type": "SLD", "name": "Silicon", "rho": {"name": "Silicon rho", "type": "Parameter", "value": 20.20282596252582, "fixed": false, "bounds": {"type": "Bounded", "limits": [19.07, 21.07]}}, "irho": {"name": "Silicon irho", "type": "Parameter", "value": 0.712165007829284, "fixed": false, "bounds": {"type": "Bounded", "limits": [-0.542, 1.458]}}}}, {"name": "SiOx", "type": "Slab", "thickness": {"name": "SiOx thickness", "type": "Parameter", "value": 38.36135520814885, "fixed": false, "bounds": {"type": "Bounded", "limits": [0.0, 140.55]}}, "interface": {"name": "SiOx interface", "type": "Parameter", "value": 3.204385839479052, "fixed": false, "bounds": {"type": "Bounded", "limits": [0.0, 13.224]}}, "material": {"type": "SLD", "name": "SiOx", "rho": {"name": "SiOx rho", "type": "Parameter", "value": 33.891866292474845, "fixed": false, "bounds": {"type": "Bounded", "limits": [32.94, 34.94]}}, "irho": {"name": "SiOx irho", "type": "Parameter", "value": 6.797465825748432, "fixed": false, "bounds": {"type": "Bounded", "limits": [5.871, 7.871]}}}}, {"name": "Permalloy", "type": "Slab", "thickness": {"name": "Permalloy thickness", "type": "Parameter", "value": 107.39716131942276, "fixed": false, "bounds": {"type": "Bounded", "limits": [8.0, 208.0]}}, "interface": {"name": "Permalloy interface", "type": "Parameter", "value": 9.20143028684408, "fixed": false, "bounds": {"type": "Bounded", "limits": [0.0, 16.751]}}, "material": {"type": "SLD", "name": "Permalloy", "rho": {"name": "Permalloy rho", "type": "Parameter", "value": 66.4867901317624, "fixed": false, "bounds": {"type": "Bounded", "limits": [65.49, 67.49]}}, "irho": {"name": "Permalloy irho", "type": "Parameter", "value": -0.8978277600899358, "fixed": false, "bounds": {"type": "Bounded", "limits": [-1.0, 1.0]}}}}, {"name": "Interace", "type": "Slab", "thickness": {"name": "Interace thickness", "type": "Parameter", "value": 0.7381822581986524, "fixed": false, "bounds": {"type": "Bounded", "limits": [0.0, 110.0]}}, "interface": {"name": "Interace interface", "type": "Parameter", "value": 5.172196569149014, "fixed": false, "bounds": {"type": "Bounded", "limits": [0.0, 16.751]}}, "material": {"type": "SLD", "name": "Interace", "rho": {"name": "Interace rho", "type": "Parameter", "value": 99.82581736216804, "fixed": false, "bounds": {"type": "Bounded", "limits": [99.0, 101.0]}}, "irho": {"name": "Interace irho", "type": "Parameter", "value": 3.8620277360428172, "fixed": false, "bounds": {"type": "Bounded", "limits": [2.75, 4.75]}}}}, {"name": "Platinum", "type": "Slab", "

Note: README.md
# Nafion
This repository contains the data, fits, and code used to determine the structure of Nafion at the surface of a platinum electrode.

# Structure
The repository is organized into five subrepositories that contain:

1. **Analysis-** summary tables and a presentation of the results.
2. **Figures-** PDFs of the best fit profiles and reflectivity.
3. **Fits-** the Refl1D output files for each fit,
4. **Refl Files-** raw Refl files from the data cleaning and reduction step.
5. **Scripts-** Python fitting scripts used in conjunction with Refl1D.

The **Analysis** folder is further divided into folders named after the experimental conditions, and an additional **Active** folder that contains the current best fit models.

File: R1XR Permalloy-Pt-refl.dat
# intensity: 1.01936
# background: 0
#           Q (1/A)             dQ (1/A)                    R                   dR               theory              fresnel
     0.0483642 0.000750703       0.951435     0.00501004    0.918266   0.0188518
      0.0540541 0.000750729       0.891643     0.00477517    0.891542   0.011405
     0.0597439 0.000750758       0.797485     0.00440218    0.828299   0.00702659
     0.0654336 0.00075079       0.611078     0.00364825    0.656703  0.00460109
     0.0711234 0.000750825        0.478614      0.00309314     0.472069  0.00315441
     0.0768131 0.000750863       0.459408     0.0030107    0.455096   0.00224215
     0.0825028 0.000750903       0.407801     0.00278597    0.411437   0.00164115
     0.0881924 0.000750947       0.315984     0.00237106    0.317671  0.00123087
     0.093882 0.000750993       0.203718     0.00182082    0.210201 0.000942397
     0.0995715 0.000751043       0.126109     0.00138567    0.129311 0.000734427
      0.105261 0.000751095       0.0864528     0.00112693   0.0882315 0.000581238
      0.11095 0.00075115      0.0717636     0.00101977   0.0699258 0.00046627
      0.11664 0.000751208      0.056803    0.000900912   0.0548272 0.000378556
      0.122329  0.000751269      0.0366782    0.000717022   0.0365006 0.000310654
      0.128018 0.000751333      0.0191642    0.000513886   0.0187318 0.000257398
      0.133708 0.0007514       0.00715996    4.06431e-05  0.0071419 0.000215138
      0.139397 0.00075147      0.00323263    2.39623e-05  0.00312781 0.000181246
      0.145086 0.000751542      0.00369498    2.6159e-05  0.00352388  0.000153802
      0.150775 0.000751618     0.00441552    2.93399e-05  0.00430371 0.000131381
      0.156464  0.000751696     0.00376296    2.64656e-05  0.00366211 0.000112917
      0.162153 0.000751777      0.00229319    1.95261e-05  0.00222413 9.75966e-05
      0.167841 0.000751861     0.00142039    1.48132e-05  0.00139639 8.47971e-05
      0.17353 0.000751949     0.00180153    1.69586e-05  0.00179063 7.40353e-05
      0.179219 0.000752038     0.00289959    2.24921e-05  0.00286351 6.49328e-05
      0.184907 0.000752131      0.00375126      2.6414e-05  0.00362538 5.71911e-05
      0.190596 0.000752227     0.00367332    2.60639e-05  0.00350645 5.05725e-05
      0.196284 0.000752326     0.00285421    2.22767e-05  0.00267063 4.48867e-05
      0.201972 0.000752427      0.0018165    1.70415e-05   0.00171782 3.99798e-05
      0.20766  0.000752531      0.00119982    1.34865e-05  0.00116033 3.5727e-05
      0.213348 0.000752639     0.00109143     6.38196e-06  0.00109839 3.20261e-05
       0.219036 0.000752749     0.00125787    7.44613e-06  0.00126766 2.87933e-05
      0.224724 0.000752862     0.00132416    7.71661e-06  0.00132622 2.5959e-05
      0.230412 0.000752978       0.00113446    6.93603e-06  0.00111612 2.34658e-05
      0.2361  0.000753096    0.000743413     5.2542e-06 0.000725654 2.12653e-05
      0.241787 0.000753218    0.000363751    3.41239e-06 0.000364116 1.93173e-05
      0.247474 0.000753342    0.000174183    2.26555e-06 0.000184458 1.75877e-05
      0.253162 0.00075347     0.000172904    2.25594e-06 0.000190197 1.60478e-05
      0.258849 0.0007536    0.000256498     2.79959e-06  0.000270196 1.4673e-05
      0.264536  0.000753733     0.000299363    3.05329e-06 0.000304819 1.34425e-05
       0.270223 0.000753869    0.000248255    2.7485e-06 0.000250878 1.23386e-05
       0.27591 0.000754008    0.00014367    2.0428e-06 0.000150964 1.13459e-05
      0.281596  0.00075415    7.62973e-05    1.46707e-06 7.92626e-05 1.04511e-05
      0.287283 0.000754294    6.87165e-05    1.38989e-06 7.75729e-05 9.64299e-06
      0.292969  0.000754442     0.000122563    1.87778e-06 0.000129567 8.91159e-06
      0.298655 0.000754592      0.000173893    2.26371e-06 0.000183204 8.24832e-06
      0.304341  0.000754745    0.000186584    2.35136e-06 0.000194706 7.64571e-06
      0.310027 0.000754901    0.000150859    2.09721e-06 0.000157973 7.0972e-06
      0.315713 0.00075506    9.86801e-05    1.67677e-06 0.000101504  6.59707e-06
      0.321398 0.000755221    5.70398e-05    1.26513e-06 6.16281e-05 6.14028e-06
      0.327084   0.000755386    5.10703e-05    1.1973e-06 5.56816e-05 5.7224e-06
      0.332769 0.000755553    6.92978e-05     1.3973e-06 7.3915e-05 5.33951e-06
      0.338454 0.000755723    8.81335e-05    1.58111e-06 9.19247e-05 4.98816e-06
      0.344139 0.000755896    8.72089e-05    1.57221e-06   9.07035e-05  4.66526e-06
      0.349824 0.000756072    6.1544e-05    1.31331e-06 6.8778e-05 4.36811e-06
      0.355509 0.000756251    3.63711e-05    3.42188e-07 3.97429e-05 4.09439e-06
      0.366877 0.000756617    1.55533e-05     2.25575e-07 1.54315e-05  3.60832e-06
      0.378245 0.000756994    2.98107e-05     3.20094e-07 2.96411e-05 3.19225e-06
      0.389613 0.000757383    2.0037e-05    2.57705e-07 2.14151e-05 2.83452e-06
      0.400979 0.000757782    5.56454e-06      1.33336e-07  5.73169e-06 2.52557e-06
      0.412345 0.000758193    1.09164e-05    1.87369e-07 1.16786e-05 2.25763e-06
      0.42371 0.000758615     1.3823e-05    2.1157e-07 1.52479e-05 2.02433e-06
      0.435074 0.000759049    5.85682e-06    1.3669e-07 6.20166e-06 1.82044e-06
      0.446437 0.000759493     4.04303e-06    1.14208e-07 4.03278e-06 1.6416e-06
      0.457799 0.000759949    7.40615e-06    1.53745e-07 7.84762e-06 1.48422e-06
       0.4649 0.00076024    6.56573e-06    7.24209e-08 6.99782e-06 1.39536e-06
      0.476261 0.000760714     2.3004e-06    4.1948e-08 2.22665e-06 1.26664e-06
      0.487621 0.000761199    1.90608e-06    3.82458e-08 1.5859e-06 1.15243e-06
      0.49898 0.000761694    3.08152e-06    4.83506e-08 3.03385e-06 1.05082e-06
      0.510338 0.000762202    1.87371e-06    3.79812e-08 1.63695e-06 9.60171e-07
      0.521695 0.00076272    5.63896e-07    2.26878e-08 3.98309e-07 8.79103e-07
      0.533051 0.000763249    1.1845e-06    3.0857e-08 1.14461e-06 8.06421e-07
      0.544406 0.000763789    1.26304e-06    3.16686e-08 1.18267e-06 7.41106e-07
      0.55576 0.00076434    4.4886e-07    2.05375e-08 3.22098e-07 6.8228e-07
      0.567113 0.000764901    3.73655e-07    1.86391e-08 3.23541e-07 6.29174e-07
      0.574208 0.000765258    6.14205e-07     1.45636e-08 5.79699e-07 5.9861e-07
      0.585559 0.000765838    5.65676e-07    1.30794e-08 4.90683e-07  5.5346e-07
      0.596909 0.000766428    1.37431e-07    8.50934e-09 1.04684e-07 5.12492e-07
      0.608258 0.000767029    1.81454e-07    9.03174e-09 1.45108e-07 4.75251e-07
      0.619605  0.000767641    3.32922e-07     1.07794e-08 2.52097e-07 4.41336e-07
      0.630952 0.000768264    1.4624e-07    8.4887e-09 1.01806e-07 4.10397e-07
      0.642297 0.000768897     3.78274e-08    6.79982e-09 2.4599e-08 3.82126e-07
      0.653641 0.000769541    1.40923e-07    8.31477e-09 9.53001e-08 3.56251e-07
      0.664983  0.000770196    1.01046e-07    7.88353e-09 7.97714e-08 3.32532e-07
      0.676325 0.000770861    1.58611e-08    6.43878e-09 1.29737e-08 3.10758e-07
      0.687665 0.000771537     6.11006e-08    7.10095e-09  2.39184e-08 2.9074e-07
       0.699003 0.000772224    6.23623e-08    7.10715e-09 4.37521e-08 2.7231e-07
      0.71034 0.000772921    2.36562e-08     6.40672e-09 1.66124e-08 2.5532e-07
      0.721676 0.000773628    1.04087e-08    6.14912e-09 3.06453e-09 2.39637e-07
      0.733011 0.000774346    2.68779e-08    6.50839e-09 1.55466e-08  2.25142e-07
      0.744344 0.000775074    1.20083e-08    6.29982e-09 1.29884e-08 2.11728e-07
      0.755675  0.000775813    7.36729e-09    6.1952e-09 1.59526e-09  1.993e-07
      0.767006 0.000776562    1.20534e-08    6.15267e-09 3.30428e-09 1.87772e-07
      0.778334 0.000777321    6.19559e-09    6.16892e-09 6.66006e-09 1.77068e-07
      0.789661 0.000778091    9.0796e-09    6.14868e-09 2.67794e-09 1.67643e-07