Folder: Nafion/Interfaces/3 Pt-Air

Note: Interfaces/3 Pt-Air/R1XR Pt-Air-expt.json
{"type": "Experiment", "sample": {"type": "Stack", "layers": [{"name": "Silicon", "type": "Slab", "thickness": {"name": "Silicon thickness", "type": "Parameter", "value": 0.0, "fixed": true, "bounds": {"type": "Unbounded", "limits": [0, Infinity]}}, "interface": {"name": "Silicon interface", "type": "Parameter", "value": 20.63304701142679, "fixed": false, "bounds": {"type": "Bounded", "limits": [8.65, 28.65]}}, "material": {"type": "SLD", "name": "Silicon", "rho": {"name": "Silicon rho", "type": "Parameter", "value": 20.07, "fixed": true, "bounds": {"type": "Unbounded", "limits": [-Infinity, Infinity]}}, "irho": {"name": "Silicon irho", "type": "Parameter", "value": 0.458, "fixed": true, "bounds": {"type": "Unbounded", "limits": [-Infinity, Infinity]}}}}, {"name": "SiOx", "type": "Slab", "thickness": {"name": "SiOx thickness", "type": "Parameter", "value": 44.05149675287633, "fixed": false, "bounds": {"type": "Bounded", "limits": [0.0, 140.55]}}, "interface": {"name": "SiOx interface", "type": "Parameter", "value": 3.319850864237254, "fixed": false, "bounds": {"type": "Bounded", "limits": [0.0, 13.224]}}, "material": {"type": "SLD", "name": "SiOx", "rho": {"name": "SiOx rho", "type": "Parameter", "value": 33.028236634818214, "fixed": false, "bounds": {"type": "Bounded", "limits": [32.94, 34.94]}}, "irho": {"name": "SiOx irho", "type": "Parameter", "value": 6.184041992990693, "fixed": false, "bounds": {"type": "Bounded", "limits": [5.871, 7.871]}}}}, {"name": "Permalloy", "type": "Slab", "thickness": {"name": "Permalloy thickness", "type": "Parameter", "value": 107.99066894807602, "fixed": false, "bounds": {"type": "Bounded", "limits": [8.0, 208.0]}}, "interface": {"name": "Permalloy interface", "type": "Parameter", "value": 6.784187947125627, "fixed": false, "bounds": {"type": "Bounded", "limits": [0.0, 16.751]}}, "material": {"type": "SLD", "name": "Permalloy", "rho": {"name": "Permalloy rho", "type": "Parameter", "value": 66.38488479324559, "fixed": false, "bounds": {"type": "Bounded", "limits": [65.49, 67.49]}}, "irho": {"name": "Permalloy irho", "type": "Parameter", "value": -0.07013442458599443, "fixed": false, "bounds": {"type": "Bounded", "limits": [-1.0, 1.0]}}}}, {"name": "Platinum", "type": "Slab", "thickness": {"name": "Platinum thickness", "type": "Parameter", "value": 49.48181925377578, "fixed": false, "bounds": {"type": "Bounded", "limits": [0.0, 149.49]}}, "interface": {"name": "Platinum interface", "type": "Parameter", "value": 3.2955294642822883, "fixed": false, "bounds": {"type": "Bounded", "limits": [0.0, 13.657]}}, "material": {"type": "SLD", "name": "Platinum", "rho": {"name": "Platinum rho", "type": "Parameter", "value": 134.30388016777763, "fixed": false, "bounds": {"type": "Bounded", "limits": [132.9, 134.9]}}, "irho": {"name": "Platinum irho", "type": "Parameter", "value": 8.450999989985572, "fixed": false, "bounds": {"type": "Bounded", "limits": [6.451, 8.451]}}}}, {"name": "Interface", "type": "Slab", "thickness": {"nam

Note: README.md
# Nafion
This repository contains the data, fits, and code used to determine the structure of Nafion at the surface of a platinum electrode.

# Structure
The repository is organized into five subrepositories that contain:

1. **Analysis-** summary tables and a presentation of the results.
2. **Figures-** PDFs of the best fit profiles and reflectivity.
3. **Fits-** the Refl1D output files for each fit,
4. **Refl Files-** raw Refl files from the data cleaning and reduction step.
5. **Scripts-** Python fitting scripts used in conjunction with Refl1D.

The **Analysis** folder is further divided into folders named after the experimental conditions, and an additional **Active** folder that contains the current best fit models.

File: R1XR Pt-Air-refl.dat
# intensity: 1.0344
# background: 0
#           Q (1/A)             dQ (1/A)                    R                   dR               theory              fresnel
     0.0483642 0.000750703       0.951435     0.00501004    0.931732   0.0191299
      0.0540541 0.000750729       0.891643     0.00477517    0.905149   0.0115733
     0.0597439 0.000750758       0.797485     0.00440218    0.84339  0.00713025
     0.0654336 0.00075079       0.611078     0.00364825    0.675342  0.00466897
     0.0711234 0.000750825        0.478614      0.00309314    0.474682  0.00320094
     0.0768131 0.000750863       0.459408     0.0030107    0.452168  0.00227523
     0.0825028 0.000750903       0.407801     0.00278597    0.414381  0.00166536
     0.0881924 0.000750947       0.315984     0.00237106    0.324672  0.00124903
     0.093882 0.000750993       0.203718     0.00182082    0.216145  0.0009563
     0.0995715 0.000751043       0.126109     0.00138567    0.131143 0.000745262
      0.105261 0.000751095       0.0864528     0.00112693   0.0885085 0.000589813
      0.11095 0.00075115      0.0717636     0.00101977   0.0715385 0.000473148
      0.11664 0.000751208      0.056803    0.000900912   0.0574364 0.000384141
      0.122329  0.000751269      0.0366782    0.000717022   0.0385562 0.000315237
      0.128018 0.000751333      0.0191642    0.000513886   0.0195941 0.000261196
      0.133708 0.0007514       0.00715996    4.06431e-05  0.00721482 0.000218312
      0.139397 0.00075147      0.00323263    2.39623e-05   0.00298401 0.00018392
      0.145086 0.000751542      0.00369498    2.6159e-05  0.0033825  0.000156071
      0.150775 0.000751618     0.00441552    2.93399e-05  0.0041466 0.00013332
      0.156464  0.000751696     0.00376296    2.64656e-05  0.0034752 0.000114583
      0.162153 0.000751777      0.00229319    1.95261e-05   0.0020542 9.90364e-05
      0.167841 0.000751861     0.00142039    1.48132e-05  0.00129285 8.60481e-05
      0.17353 0.000751949     0.00180153    1.69586e-05  0.00176467 7.51275e-05
      0.179219 0.000752038     0.00289959    2.24921e-05  0.00289534 6.58908e-05
      0.184907 0.000752131      0.00375126      2.6414e-05  0.00368555  5.80348e-05
      0.190596 0.000752227     0.00367332    2.60639e-05  0.00356847  5.13186e-05
      0.196284 0.000752326     0.00285421    2.22767e-05   0.00271668 4.55489e-05
      0.201972 0.000752427      0.0018165    1.70415e-05  0.00174202 4.05696e-05
      0.20766  0.000752531      0.00119982    1.34865e-05  0.00116757 3.6254e-05
      0.213348 0.000752639     0.00109143     6.38196e-06  0.00109787 3.24986e-05
       0.219036 0.000752749     0.00125787    7.44613e-06  0.00126582 2.9218e-05
      0.224724 0.000752862     0.00132416    7.71661e-06  0.00132418 2.6342e-05
      0.230412 0.000752978       0.00113446    6.93603e-06  0.00111202  2.3812e-05
      0.2361  0.000753096    0.000743413     5.2542e-06 0.000718411 2.15791e-05
      0.241787 0.000753218    0.000363751    3.41239e-06 0.000354984 1.96023e-05
      0.247474 0.000753342    0.000174183    2.26555e-06  0.000176164 1.78472e-05
      0.253162 0.00075347     0.000172904    2.25594e-06 0.000185135 1.62845e-05
      0.258849 0.0007536    0.000256498     2.79959e-06 0.000269297 1.48895e-05
      0.264536  0.000753733     0.000299363    3.05329e-06 0.00030748 1.36409e-05
       0.270223 0.000753869    0.000248255    2.7485e-06 0.000255483 1.25206e-05
       0.27591 0.000754008    0.00014367    2.0428e-06 0.000155509 1.15132e-05
      0.281596  0.00075415    7.62973e-05    1.46707e-06 8.19304e-05 1.06053e-05
      0.287283 0.000754294    6.87165e-05    1.38989e-06 7.72724e-05  9.78526e-06
      0.292969  0.000754442     0.000122563    1.87778e-06 0.000126277 9.04306e-06
      0.298655 0.000754592      0.000173893    2.26371e-06 0.000177881 8.37001e-06
      0.304341  0.000754745    0.000186584    2.35136e-06 0.000188693 7.7585e-06
      0.310027 0.000754901    0.000150859    2.09721e-06  0.000152219 7.2019e-06
      0.315713 0.00075506    9.86801e-05    1.67677e-06 9.6082e-05 6.6944e-06
      0.321398 0.000755221    5.70398e-05    1.26513e-06 5.58843e-05 6.23087e-06
      0.327084   0.000755386    5.10703e-05    1.1973e-06 4.88956e-05 5.80682e-06
      0.332769 0.000755553    6.92978e-05     1.3973e-06 6.59868e-05  5.41829e-06
      0.338454 0.000755723    8.81335e-05    1.58111e-06 8.36094e-05 5.06175e-06
      0.344139 0.000755896    8.72089e-05    1.57221e-06 8.32547e-05 4.73409e-06
      0.349824 0.000756072    6.1544e-05    1.31331e-06 6.32853e-05 4.43255e-06
      0.355509 0.000756251    3.63711e-05    3.42188e-07 3.66206e-05 4.1548e-06
      0.366877 0.000756617    1.55533e-05     2.25575e-07 1.57258e-05 3.66155e-06
      0.378245 0.000756994    2.98107e-05     3.20094e-07 3.10049e-05  3.23934e-06
      0.389613 0.000757383    2.0037e-05    2.57705e-07 2.30858e-05 2.87633e-06
      0.400979 0.000757782    5.56454e-06      1.33336e-07 6.85678e-06 2.56283e-06
      0.412345 0.000758193    1.09164e-05    1.87369e-07 1.16921e-05 2.29094e-06
      0.42371 0.000758615     1.3823e-05    2.1157e-07 1.50009e-05 2.0542e-06
      0.435074 0.000759049    5.85682e-06    1.3669e-07 6.16946e-06  1.84729e-06
      0.446437 0.000759493     4.04303e-06    1.14208e-07 3.64221e-06 1.66582e-06
      0.457799 0.000759949    7.40615e-06    1.53745e-07 7.15741e-06 1.50611e-06
       0.4649 0.00076024    6.56573e-06    7.24209e-08 6.49188e-06 1.41594e-06
      0.476261 0.000760714     2.3004e-06    4.1948e-08 2.21188e-06 1.28533e-06
      0.487621 0.000761199    1.90608e-06    3.82458e-08 1.72604e-06   1.16943e-06
      0.49898 0.000761694    3.08152e-06    4.83506e-08 3.16971e-06 1.06632e-06
      0.510338 0.000762202    1.87371e-06    3.79812e-08 1.8309e-06 9.74337e-07
      0.521695 0.00076272    5.63896e-07    2.26878e-08 5.5677e-07 8.92072e-07
      0.533051 0.000763249    1.1845e-06    3.0857e-08  1.21515e-06 8.18318e-07
      0.544406 0.000763789    1.26304e-06    3.16686e-08 1.25718e-06 7.5204e-07
      0.55576 0.00076434    4.4886e-07    2.05375e-08 4.02896e-07 6.92345e-07
      0.567113 0.000764901    3.73655e-07    1.86391e-08 3.506e-07 6.38456e-07
      0.574208 0.000765258    6.14205e-07     1.45636e-08 5.86211e-07 6.07441e-07
      0.585559 0.000765838    5.65676e-07    1.30794e-08 5.13922e-07 5.61625e-07
      0.596909 0.000766428    1.37431e-07    8.50934e-09 1.4427e-07 5.20053e-07
      0.608258 0.000767029    1.81454e-07    9.03174e-09 1.74562e-07 4.82262e-07
      0.619605  0.000767641    3.32922e-07     1.07794e-08 2.79312e-07 4.47847e-07
      0.630952 0.000768264    1.4624e-07    8.4887e-09 1.31511e-07  4.16451e-07
      0.642297 0.000768897     3.78274e-08    6.79982e-09 4.62962e-08  3.87763e-07
      0.653641 0.000769541    1.40923e-07    8.31477e-09 1.11625e-07 3.61506e-07
      0.664983  0.000770196    1.01046e-07    7.88353e-09 9.68085e-08 3.37438e-07
      0.676325 0.000770861    1.58611e-08    6.43878e-09 2.61797e-08  3.15343e-07
      0.687665 0.000771537     6.11006e-08    7.10095e-09 3.21833e-08 2.95029e-07
       0.699003 0.000772224    6.23623e-08    7.10715e-09 5.1766e-08 2.76328e-07
      0.71034 0.000772921    2.36562e-08     6.40672e-09 2.41032e-08  2.59087e-07
      0.721676 0.000773628    1.04087e-08    6.14912e-09 8.15943e-09 2.43173e-07
      0.733011 0.000774346    2.68779e-08    6.50839e-09 1.99685e-08 2.28463e-07
      0.744344 0.000775074    1.20083e-08    6.29982e-09  1.73579e-08 2.14852e-07
      0.755675  0.000775813    7.36729e-09    6.1952e-09 4.61857e-09 2.0224e-07
      0.767006 0.000776562    1.20534e-08    6.15267e-09  5.4892e-09  1.90543e-07
      0.778334 0.000777321    6.19559e-09    6.16892e-09 8.94414e-09 1.7968e-07
      0.789661 0.000778091    9.0796e-09    6.14868e-09 4.51096e-09  1.70116e-07