Folder: Nafion/Interfaces/New folder

Note: Interfaces/New folder/R1XR SiOx-Permalloy-err.json
{
  "Interface interface": {
    "best": 14.011035102217372,
    "index": 3,
    "integer": false,
    "label": "Interface interface",
    "mean": 13.829740859372723,
    "median": 13.903661664227744,
    "p68": [
      13.27273561584276,
      14.432579864095391
    ],
    "p68_range": [
      13.27273561584276,
      14.432579864095391
    ],
    "p95": [
      12.237880706875288,
      14.8752518027553
    ],
    "p95_range": [
      12.237880706875288,
      14.8752518027553
    ],
    "std": 0.6440952105951772
  },
  "Interface irho": {
    "best": 3.4822282960623188,
    "index": 4,
    "integer": false,
    "label": "Interface irho",
    "mean": 3.4072752870614997,
    "median": 3.4329463173577266,
    "p68": [
      3.330977242206905,
      3.4823022300989046
    ],
    "p68_range": [
      3.330977242206905,
      3.4823022300989046
    ],
    "p95": [
      3.173422162602882,
      3.4975819927838785
    ],
    "p95_range": [
      3.173422162602882,
      3.4975819927838785
    ],
    "std": 0.08839111234578687
  },
  "Interface rho": {
    "best": 22.057870705066332,
    "index": 5,
    "integer": false,
    "label": "Interface rho",
    "mean": 22.489739102171704,
    "median": 22.29830402981707,
    "p68": [
      22.065422265162585,
      22.846050918241176
    ],
    "p68_range": [
      22.065422265162585,
      22.846050918241176
    ],
    "p95": [
      22.00877806969432,
      24.324449646551567
    ],
    "p95_range": [
      22.00877806969432,
      24.324449646551567
    ],
    "std": 0.591990630100535
  },
  "Interface thickness": {
    "best": 29.578256474721638,
    "index": 6,
    "integer": false,
    "label": "Interface thickness",
    "mean": 28.82812803292854,
    "median": 28.953469355007325,
    "p68": [
      27.677793268530536,
      30.074135250123945
    ],
    "p68_range": [
      27.677793268530536,
      30.074135250123945
    ],
    "p95": [
      25.300629852470713,
      31.100859167003513
    ],
    "p95_range": [
      25.300629852470713,
      31.100859167003513
    ],
    "std": 1.3927432163698865
  },
  "Permalloy interface": {
    "best": 6.678668539909972,
    "index": 11,
    "integer": false,
    "label": "Permalloy interface",
    "mean": 6.689415331166292,
    "median": 6.689187896512508,
    "p68": [
      6.677329068268588,
      6.7013657244201825
    ],
    "p68_range": [
      6.677329068268588,
      6.7013657244201825
    ],
    "p95": [
      6.667202828645126,
      6.713312010022523
    ],
    "p95_range": [
      6.667202828645126,
      6.713312010022523
    ],
    "std": 0.011892089255998863
  },
  "Permalloy irho": {
    "best": 0.5524230856771251,
    "index": 12,
    "integer": false,
    "label": "Permalloy irho",
    "mean": 0.5995617286435918,
    "median": 0.6023595638955155,
    "p68": [
      0.4373832659304302,
      0.7592664673564892


Note: Interfaces/New folder/R1XR SiOx-Permalloy-expt.json
{"type": "Experiment", "sample": {"type": "Stack", "layers": [{"name": "Silicon", "type": "Slab", "thickness": {"type": "Parameter", "name": "Silicon thickness", "value": 14.651253549221321, "fixed": true, "fittable": true, "bounds": {"type": "Bounded", "limits": [0.0, 100.0]}}, "interface": {"type": "Parameter", "name": "Silicon interface", "value": 11.072258233833836, "fixed": false, "fittable": true, "bounds": {"type": "Bounded", "limits": [8.65, 28.65]}}, "material": {"type": "SLD", "name": "Silicon", "rho": {"type": "Parameter", "name": "Silicon rho", "value": 19.11839541732472, "fixed": true, "fittable": true, "bounds": {"type": "Bounded", "limits": [19.07, 21.07]}}, "irho": {"type": "Parameter", "name": "Silicon irho", "value": -0.4870269227917155, "fixed": true, "fittable": true, "bounds": {"type": "Bounded", "limits": [-0.542, 1.458]}}}}, {"name": "Interface", "type": "Slab", "thickness": {"type": "Parameter", "name": "Interface thickness", "value": 29.578256474721638, "fixed": false, "fittable": true, "bounds": {"type": "Bounded", "limits": [0.0, 140.55]}}, "interface": {"type": "Parameter", "name": "Interface interface", "value": 14.011035102217372, "fixed": false, "fittable": true, "bounds": {"type": "Bounded", "limits": [0.0, 15.0]}}, "material": {"type": "SLD", "name": "Interface", "rho": {"type": "Parameter", "name": "Interface rho", "value": 22.057870705066332, "fixed": false, "fittable": true, "bounds": {"type": "Bounded", "limits": [22.0, 27.0]}}, "irho": {"type": "Parameter", "name": "Interface irho", "value": 3.4822282960623188, "fixed": false, "fittable": true, "bounds": {"type": "Bounded", "limits": [2.5, 3.5]}}}}, {"name": "SiOx", "type": "Slab", "thickness": {"type": "Parameter", "name": "SiOx thickness", "value": 30.7592784315946, "fixed": false, "fittable": true, "bounds": {"type": "Bounded", "limits": [0.0, 140.55]}}, "interface": {"type": "Parameter", "name": "SiOx interface", "value": 3.2820057095207535, "fixed": false, "fittable": true, "bounds": {"type": "Bounded", "limits": [0.0, 13.224]}}, "material": {"type": "SLD", "name": "SiOx", "rho": {"type": "Parameter", "name": "SiOx rho", "value": 33.39705457668683, "fixed": false, "fittable": true, "bounds": {"type": "Bounded", "limits": [32.94, 34.94]}}, "irho": {"type": "Parameter", "name": "SiOx irho", "value": 7.827383343334677, "fixed": false, "fittable": true, "bounds": {"type": "Bounded", "limits": [5.871, 7.871]}}}}, {"name": "Permalloy", "type": "Slab", "thickness": {"type": "Parameter", "name": "Permalloy thickness", "value": 107.89507211193546, "fixed": false, "fittable": true, "bounds": {"type": "Bounded", "limits": [8.0, 208.0]}}, "interface": {"type": "Parameter", "name": "Permalloy interface", "value": 6.678668539909972, "fixed": false, "fittable": true, "bounds": {"type": "Bounded", "limits": [0.0, 16.751]}}, "material": {"type": "SLD", "name": "Permalloy", "rho": {"type": "Parameter", "name": "Permalloy rho", "value": 67.3244869864463, "fixed": false, "f

Note: README.md
# Nafion
This repository contains the data, fits, and code used to determine the structure of Nafion at the surface of a platinum electrode.

# Structure
The repository is organized into five subrepositories that contain:

1. **Analysis-** summary tables and a presentation of the results.
2. **Figures-** PDFs of the best fit profiles and reflectivity.
3. **Fits-** the Refl1D output files for each fit,
4. **Refl Files-** raw Refl files from the data cleaning and reduction step.
5. **Scripts-** Python fitting scripts used in conjunction with Refl1D.

The **Analysis** folder is further divided into folders named after the experimental conditions, and an additional **Active** folder that contains the current best fit models.

File: R1XR SiOx-Permalloy-refl.dat
# intensity: 1.02055
# background: 0
#           Q (1/A)             dQ (1/A)                    R                   dR               theory              fresnel
     0.0483642 0.000750703       0.951435     0.00501004    0.91932   0.0166297
      0.0540541 0.000750729       0.891643     0.00477517     0.893402   0.010134
     0.0597439 0.000750758       0.797485     0.00440218    0.83398  0.00627615
     0.0654336 0.00075079       0.611078     0.00364825    0.670361    0.00412404
     0.0711234 0.000750825        0.478614      0.00309314    0.466318  0.00283435
     0.0768131 0.000750863       0.459408     0.0030107    0.44572  0.00201835
     0.0825028 0.000750903       0.407801     0.00278597    0.408481  0.0014794
     0.0881924 0.000750947       0.315984     0.00237106    0.318685  0.00111078
     0.093882 0.000750993       0.203718     0.00182082    0.211661 0.000851194
     0.0995715 0.000751043       0.126109     0.00138567    0.128923 0.000663825
      0.105261 0.000751095       0.0864528     0.00112693   0.0873717 0.000525672
      0.11095 0.00075115      0.0717636     0.00101977   0.0704659 0.000421903
      0.11664 0.000751208      0.056803    0.000900912   0.0563972 0.000342678
      0.122329  0.000751269      0.0366782    0.000717022   0.0377934 0.000281311
      0.128018 0.000751333      0.0191642    0.000513886   0.019207   0.000233158
      0.133708 0.0007514       0.00715996    4.06431e-05  0.00712958 0.000194929
      0.139397 0.00075147      0.00323263    2.39623e-05  0.00302073 0.000164259
      0.145086 0.000751542      0.00369498    2.6159e-05  0.00338606 0.000139415
      0.150775 0.000751618     0.00441552    2.93399e-05  0.00409582  0.000119114
      0.156464  0.000751696     0.00376296    2.64656e-05  0.00344415  0.00010239
      0.162153 0.000751777      0.00229319    1.95261e-05  0.00208439  8.85103e-05
      0.167841 0.000751861     0.00142039    1.48132e-05  0.0013424 7.69124e-05
      0.17353 0.000751949     0.00180153    1.69586e-05  0.00177737 6.7159e-05
      0.179219 0.000752038     0.00289959    2.24921e-05  0.00287405 5.89081e-05
      0.184907 0.000752131      0.00375126      2.6414e-05  0.00367644 5.18895e-05
      0.190596 0.000752227     0.00367332    2.60639e-05  0.00359732 4.58885e-05
      0.196284 0.000752326     0.00285421    2.22767e-05  0.00276449 4.07324e-05
      0.201972 0.000752427      0.0018165    1.70415e-05  0.00177637 3.62823e-05
      0.20766  0.000752531      0.00119982    1.34865e-05  0.00117909 3.24249e-05
      0.213348 0.000752639     0.00109143     6.38196e-06  0.0011014 2.90678e-05
       0.219036 0.000752749     0.00125787    7.44613e-06  0.0012769  2.61351e-05
      0.224724 0.000752862     0.00132416    7.71661e-06  0.00134373 2.35637e-05
      0.230412 0.000752978       0.00113446    6.93603e-06  0.00113106 2.13015e-05
      0.2361  0.000753096    0.000743413     5.2542e-06  0.0007301 1.93049e-05
      0.241787 0.000753218    0.000363751    3.41239e-06 0.000359733 1.75372e-05
      0.247474 0.000753342    0.000174183    2.26555e-06 0.000178383 1.59676e-05
      0.253162 0.00075347     0.000172904    2.25594e-06 0.000188335 1.457e-05
      0.258849 0.0007536    0.000256498     2.79959e-06 0.000274217 1.33223e-05
      0.264536  0.000753733     0.000299363    3.05329e-06 0.000312958 1.22055e-05
       0.270223 0.000753869    0.000248255    2.7485e-06 0.000260021 1.12034e-05
       0.27591 0.000754008    0.00014367    2.0428e-06 0.000158421 1.03023e-05
      0.281596  0.00075415    7.62973e-05    1.46707e-06 8.37922e-05  9.49011e-06
      0.287283 0.000754294    6.87165e-05    1.38989e-06 7.95066e-05 8.7565e-06
      0.292969  0.000754442     0.000122563    1.87778e-06 0.000130068 8.09252e-06
      0.298655 0.000754592      0.000173893    2.26371e-06 0.000183221 7.49037e-06
      0.304341  0.000754745    0.000186584    2.35136e-06 0.000194383 6.94327e-06
      0.310027 0.000754901    0.000150859    2.09721e-06 0.000156821 6.44528e-06
      0.315713 0.00075506    9.86801e-05    1.67677e-06 9.89823e-05 5.9912e-06
      0.321398 0.000755221    5.70398e-05    1.26513e-06 5.76036e-05 5.57646e-06
      0.327084   0.000755386    5.10703e-05    1.1973e-06  5.0501e-05 5.19703e-06
      0.332769 0.000755553    6.92978e-05     1.3973e-06 6.82038e-05 4.84937e-06
      0.338454 0.000755723    8.81335e-05    1.58111e-06 8.6355e-05 4.53033e-06
      0.344139 0.000755896    8.72089e-05    1.57221e-06 8.58557e-05 4.23713e-06
      0.349824 0.000756072    6.1544e-05    1.31331e-06 6.50857e-05  3.9673e-06
      0.355509 0.000756251    3.63711e-05    3.42188e-07 3.74641e-05 3.71875e-06
      0.366877 0.000756617    1.55533e-05     2.25575e-07 1.59414e-05 3.27734e-06
      0.378245 0.000756994    2.98107e-05     3.20094e-07 3.17271e-05 2.8995e-06
      0.389613 0.000757383    2.0037e-05    2.57705e-07 2.343e-05 2.57463e-06
      0.400979 0.000757782    5.56454e-06      1.33336e-07 6.76968e-06 2.29405e-06
      0.412345 0.000758193    1.09164e-05    1.87369e-07  1.19138e-05 2.0507e-06
      0.42371 0.000758615     1.3823e-05    2.1157e-07 1.52616e-05 1.83882e-06
      0.435074 0.000759049    5.85682e-06    1.3669e-07 6.10564e-06 1.65363e-06
      0.446437 0.000759493     4.04303e-06    1.14208e-07 3.58949e-06 1.4912e-06
      0.457799 0.000759949    7.40615e-06    1.53745e-07 7.21821e-06 1.34825e-06
       0.4649 0.00076024    6.56573e-06    7.24209e-08 6.49534e-06 1.26754e-06
      0.476261 0.000760714     2.3004e-06    4.1948e-08 2.09471e-06 1.15063e-06
      0.487621 0.000761199    1.90608e-06    3.82458e-08 1.64353e-06 1.04689e-06
      0.49898 0.000761694    3.08152e-06    4.83506e-08 3.11263e-06  9.54588e-07
      0.510338 0.000762202    1.87371e-06    3.79812e-08 1.73486e-06  8.72251e-07
      0.521695 0.00076272    5.63896e-07    2.26878e-08  4.71785e-07 7.98612e-07
      0.533051 0.000763249    1.1845e-06    3.0857e-08 1.15389e-06 7.32591e-07
      0.544406 0.000763789    1.26304e-06    3.16686e-08 1.18505e-06  6.7326e-07
      0.55576 0.00076434    4.4886e-07    2.05375e-08 3.37003e-07 6.19823e-07
      0.567113 0.000764901    3.73655e-07    1.86391e-08 3.02537e-07 5.71582e-07
      0.574208 0.000765258    6.14205e-07     1.45636e-08 5.37537e-07 5.43818e-07
      0.585559 0.000765838    5.65676e-07    1.30794e-08 4.6183e-07 5.02803e-07
      0.596909 0.000766428    1.37431e-07    8.50934e-09 1.06208e-07 4.65588e-07
      0.608258 0.000767029    1.81454e-07    9.03174e-09 1.4406e-07 4.31757e-07
      0.619605  0.000767641    3.32922e-07     1.07794e-08 2.44607e-07 4.00948e-07
      0.630952 0.000768264    1.4624e-07    8.4887e-09 1.03993e-07 3.72842e-07
      0.642297 0.000768897     3.78274e-08    6.79982e-09 2.856e-08 3.47159e-07
      0.653641 0.000769541    1.40923e-07    8.31477e-09 9.19765e-08 3.23653e-07
      0.664983  0.000770196    1.01046e-07    7.88353e-09 7.78168e-08 3.02106e-07
      0.676325 0.000770861    1.58611e-08    6.43878e-09 1.48819e-08 2.82325e-07
      0.687665 0.000771537     6.11006e-08    7.10095e-09 2.25798e-08 2.64139e-07
       0.699003 0.000772224    6.23623e-08    7.10715e-09 4.03757e-08  2.47397e-07
      0.71034 0.000772921    2.36562e-08     6.40672e-09 1.62072e-08 2.31962e-07
      0.721676 0.000773628    1.04087e-08    6.14912e-09 3.51771e-09 2.17714e-07
      0.733011 0.000774346    2.68779e-08    6.50839e-09 1.43201e-08 2.04546e-07
      0.744344 0.000775074    1.20083e-08    6.29982e-09 1.21389e-08  1.92359e-07
      0.755675  0.000775813    7.36729e-09    6.1952e-09 1.89743e-09 1.81069e-07
      0.767006 0.000776562    1.20534e-08    6.15267e-09 3.12281e-09 1.70596e-07
      0.778334 0.000777321    6.19559e-09    6.16892e-09 6.04519e-09 1.60871e-07
      0.789661 0.000778091    9.0796e-09    6.14868e-09 2.57934e-09 1.52308e-07