Folder: Nafion/Fits/Active/X Ray

Note: Fits/Active/X Ray/R1XR_UpdatedSLD-err.json
{
  "Permalloy interface": {
    "best": 6.603003682775143,
    "index": 8,
    "integer": false,
    "label": "Permalloy interface",
    "mean": 6.603853031443515,
    "median": 6.603604527920173,
    "p68": [
      6.591419522507022,
      6.616553168689154
    ],
    "p68_range": [
      6.591419522507022,
      6.616553168689154
    ],
    "p95": [
      6.578512409243795,
      6.629466258891061
    ],
    "p95_range": [
      6.578512409243795,
      6.629466258891061
    ],
    "std": 0.01280000833171243
  },
  "Permalloy irho": {
    "best": 2.9040196003597902,
    "index": 9,
    "integer": false,
    "label": "Permalloy irho",
    "mean": 2.906793839503446,
    "median": 2.910008374425265,
    "p68": [
      2.705850970999805,
      3.1023386882282864
    ],
    "p68_range": [
      2.705850970999805,
      3.1023386882282864
    ],
    "p95": [
      2.5069856621932844,
      3.302880520778924
    ],
    "p95_range": [
      2.5069856621932844,
      3.302880520778924
    ],
    "std": 0.20195243442569794
  },
  "Permalloy rho": {
    "best": 66.07009207747569,
    "index": 10,
    "integer": false,
    "label": "Permalloy rho",
    "mean": 66.05202074043164,
    "median": 66.05014721968026,
    "p68": [
      65.88017856045347,
      66.22636740648099
    ],
    "p68_range": [
      65.88017856045347,
      66.22636740648099
    ],
    "p95": [
      65.70893543487969,
      66.38990319389306
    ],
    "p95_range": [
      65.70893543487969,
      66.38990319389306
    ],
    "std": 0.1750071086225762
  },
  "Permalloy thickness": {
    "best": 108.0912415459924,
    "index": 11,
    "integer": false,
    "label": "Permalloy thickness",
    "mean": 108.0947672745139,
    "median": 108.09614505842647,
    "p68": [
      108.06166166566248,
      108.12706234111147
    ],
    "p68_range": [
      108.06166166566248,
      108.12706234111147
    ],
    "p95": [
      108.02866949069737,
      108.15579232290851
    ],
    "p95_range": [
      108.02866949069737,
      108.15579232290851
    ],
    "std": 0.032633813633957204
  },
  "Pt interface": {
    "best": 3.711311812034208,
    "index": 12,
    "integer": false,
    "label": "Pt interface",
    "mean": 3.711451633014237,
    "median": 3.711459941570362,
    "p68": [
      3.7095890892172925,
      3.71334547286422
    ],
    "p68_range": [
      3.7095890892172925,
      3.71334547286422
    ],
    "p95": [
      3.707649436914623,
      3.715311994475299
    ],
    "p95_range": [
      3.707649436914623,
      3.715311994475299
    ],
    "std": 0.0019309753345111377
  },
  "Pt irho": {
    "best": 12.241504411251677,
    "index": 13,
    "integer": false,
    "label": "Pt irho",
    "mean": 12.246496596885493,
    "median": 12.24444660753578,
    "p68": [
      12.166085740114967,
      12.330497329379906
    ],
    "p68_range": [
      12.166

Note: Fits/Active/X Ray/R1XR_UpdatedSLD-expt.json
{"type": "Experiment", "sample": {"type": "Stack", "layers": [{"name": "Silicon", "type": "Slab", "thickness": {"type": "Parameter", "name": "Silicon thickness", "value": 0.0, "fixed": true, "fittable": true, "bounds": {"type": "Unbounded", "limits": [0, Infinity]}}, "interface": {"type": "Parameter", "name": "Silicon interface", "value": 17.334532337500423, "fixed": false, "fittable": true, "bounds": {"type": "Bounded", "limits": [8.65, 28.65]}}, "material": {"type": "SLD", "name": "Silicon", "rho": {"type": "Parameter", "name": "Silicon rho", "value": 20.07, "fixed": true, "fittable": true, "bounds": {"type": "Unbounded", "limits": [-Infinity, Infinity]}}, "irho": {"type": "Parameter", "name": "Silicon irho", "value": -0.458, "fixed": true, "fittable": true, "bounds": {"type": "Unbounded", "limits": [-Infinity, Infinity]}}}}, {"name": "SiOx", "type": "Slab", "thickness": {"type": "Parameter", "name": "SiOx thickness", "value": 29.31539222738477, "fixed": false, "fittable": true, "bounds": {"type": "Bounded", "limits": [0.0, 140.0]}}, "interface": {"type": "Parameter", "name": "SiOx interface", "value": 3.3224867902843935, "fixed": false, "fittable": true, "bounds": {"type": "Bounded", "limits": [0.0, 13.224]}}, "material": {"type": "SLD", "name": "SiOx", "rho": {"type": "Parameter", "name": "SiOx rho", "value": 30.370660245649148, "fixed": false, "fittable": true, "bounds": {"type": "Bounded", "limits": [15.0, 40.0]}}, "irho": {"type": "Parameter", "name": "SiOx irho", "value": 6.435805605934679, "fixed": false, "fittable": true, "bounds": {"type": "Bounded", "limits": [-0.5, 15.0]}}}}, {"name": "Permalloy", "type": "Slab", "thickness": {"type": "Parameter", "name": "Permalloy thickness", "value": 108.0912415459924, "fixed": false, "fittable": true, "bounds": {"type": "Bounded", "limits": [10.0, 200.0]}}, "interface": {"type": "Parameter", "name": "Permalloy interface", "value": 6.603003682775143, "fixed": false, "fittable": true, "bounds": {"type": "Bounded", "limits": [0.0, 16.751]}}, "material": {"type": "SLD", "name": "Permalloy", "rho": {"type": "Parameter", "name": "Permalloy rho", "value": 66.07009207747569, "fixed": false, "fittable": true, "bounds": {"type": "Bounded", "limits": [60.0, 70.0]}}, "irho": {"type": "Parameter", "name": "Permalloy irho", "value": 2.9040196003597902, "fixed": false, "fittable": true, "bounds": {"type": "Bounded", "limits": [-3.0, 10.0]}}}}, {"name": "Pt", "type": "Slab", "thickness": {"type": "Parameter", "name": "Pt thickness", "value": 49.5402541261109, "fixed": false, "fittable": true, "bounds": {"type": "Bounded", "limits": [10.0, 150.0]}}, "interface": {"type": "Parameter", "name": "Pt interface", "value": 3.711311812034208, "fixed": false, "fittable": true, "bounds": {"type": "Bounded", "limits": [0.0, 13.657]}}, "material": {"type": "SLD", "name": "Pt", "rho": {"type": "Parameter", "name": "Pt rho", "value": 132.4954875271028, "fixed": false, "fittable": true, "bounds": {"type": "Bounded", "limits": [

Note: README.md
# Nafion
This repository contains the data, fits, and code used to determine the structure of Nafion at the surface of a platinum electrode.

# Structure
The repository is organized into five subrepositories that contain:

1. **Analysis-** summary tables and a presentation of the results.
2. **Figures-** PDFs of the best fit profiles and reflectivity.
3. **Fits-** the Refl1D output files for each fit,
4. **Refl Files-** raw Refl files from the data cleaning and reduction step.
5. **Scripts-** Python fitting scripts used in conjunction with Refl1D.

The **Analysis** folder is further divided into folders named after the experimental conditions, and an additional **Active** folder that contains the current best fit models.

File: R1XR_UpdatedSLD-refl.dat
# intensity: 1.08672
# background: 2.66422e-08
#           Q (1/A)             dQ (1/A)                    R                   dR               theory              fresnel
     0.0483642 0.000750703       0.951435     0.00501004    0.927821   0.0200977
      0.0540541 0.000750729       0.891643     0.00477517    0.888836   0.0121588
     0.0597439 0.000750758       0.797485     0.00440218    0.809999  0.00749096
     0.0654336 0.00075079       0.611078     0.00364825    0.643911  0.00490517
     0.0711234 0.000750825        0.478614      0.00309314    0.466551  0.00336289
     0.0768131 0.000750863       0.459408     0.0030107    0.434109  0.00239035
     0.0825028 0.000750903       0.407801     0.00278597    0.394546  0.00174963
     0.0881924 0.000750947       0.315984     0.00237106    0.306659  0.00131224
     0.093882 0.000750993       0.203718     0.00182082    0.20297  0.0010047
     0.0995715 0.000751043       0.126109     0.00138567     0.124395 0.000782988
      0.105261 0.000751095       0.0864528     0.00112693   0.0857003 0.000619675
      0.11095 0.00075115      0.0717636     0.00101977   0.0693346 0.000497109
      0.11664 0.000751208      0.056803    0.000900912   0.0549529  0.000403599
      0.122329  0.000751269      0.0366782    0.000717022   0.0365897 0.000331209
      0.128018 0.000751333      0.0191642    0.000513886   0.0187304 0.000274435
      0.133708 0.0007514       0.00715996    4.06431e-05  0.00716143 0.000229382
      0.139397 0.00075147      0.00323263    2.39623e-05  0.00314624  0.00019325
      0.145086 0.000751542      0.00369498    2.6159e-05  0.00348262 0.000163992
      0.150775 0.000751618     0.00441552    2.93399e-05  0.00421923 0.00014009
      0.156464  0.000751696     0.00376296    2.64656e-05  0.00359136 0.000120406
      0.162153 0.000751777      0.00229319    1.95261e-05  0.00219551 0.000104073
      0.167841 0.000751861     0.00142039    1.48132e-05  0.00140364 9.04275e-05
      0.17353 0.000751949     0.00180153    1.69586e-05  0.00182926 7.89545e-05
      0.179219 0.000752038     0.00289959    2.24921e-05  0.00294481 6.92505e-05
      0.184907 0.000752131      0.00375126      2.6414e-05  0.00375392 6.09972e-05
      0.190596 0.000752227     0.00367332    2.60639e-05  0.00365985 5.39412e-05
      0.196284 0.000752326     0.00285421    2.22767e-05   0.00280926 4.78796e-05
      0.201972 0.000752427      0.0018165    1.70415e-05  0.00181234  4.26485e-05
      0.20766  0.000752531      0.00119982    1.34865e-05  0.0012093 3.81146e-05
      0.213348 0.000752639     0.00109143     6.38196e-06  0.00112225 3.41692e-05
       0.219036 0.000752749     0.00125787    7.44613e-06  0.00128856  3.07227e-05
      0.224724 0.000752862     0.00132416    7.71661e-06  0.00135266 2.77012e-05
      0.230412 0.000752978       0.00113446    6.93603e-06  0.00114242 2.50431e-05
      0.2361  0.000753096    0.000743413     5.2542e-06 0.000742201   2.26973e-05
      0.241787 0.000753218    0.000363751    3.41239e-06 0.000367291 2.06205e-05
      0.247474 0.000753342    0.000174183    2.26555e-06  0.000179164 1.87766e-05
      0.253162 0.00075347     0.000172904    2.25594e-06 0.00018517 1.71349e-05
      0.258849 0.0007536    0.000256498     2.79959e-06 0.000271481 1.56693e-05
      0.264536  0.000753733     0.000299363    3.05329e-06  0.000312584 1.43575e-05
       0.270223 0.000753869    0.000248255    2.7485e-06 0.000260967 1.31806e-05
       0.27591 0.000754008    0.00014367    2.0428e-06 0.00015886 1.21223e-05
      0.281596  0.00075415    7.62973e-05    1.46707e-06 8.31047e-05 1.11684e-05
      0.287283 0.000754294    6.87165e-05    1.38989e-06 7.84765e-05 1.03069e-05
      0.292969  0.000754442     0.000122563    1.87778e-06 0.00012982 9.52714e-06
      0.298655 0.000754592      0.000173893    2.26371e-06 0.000184206 8.82005e-06
      0.304341  0.000754745    0.000186584    2.35136e-06 0.000196156 8.17761e-06
      0.310027 0.000754901    0.000150859    2.09721e-06  0.000158508 7.59285e-06
      0.315713 0.00075506    9.86801e-05    1.67677e-06 9.99325e-05  7.05967e-06
      0.321398 0.000755221    5.70398e-05    1.26513e-06 5.77417e-05 6.5727e-06
      0.327084   0.000755386    5.10703e-05    1.1973e-06 5.02317e-05 6.1272e-06
      0.332769 0.000755553    6.92978e-05     1.3973e-06 6.80226e-05 5.71901e-06
      0.338454 0.000755723    8.81335e-05    1.58111e-06 8.64903e-05 5.34444e-06
      0.344139 0.000755896    8.72089e-05    1.57221e-06 8.61824e-05  5.0002e-06
      0.349824 0.000756072    6.1544e-05    1.31331e-06 6.53069e-05 4.68341e-06
      0.355509 0.000756251    3.63711e-05    3.42188e-07 3.73636e-05 4.39161e-06
      0.366877 0.000756617    1.55533e-05     2.25575e-07  1.53217e-05 3.87341e-06
      0.378245 0.000756994    2.98107e-05     3.20094e-07 3.11413e-05 3.42985e-06
      0.389613 0.000757383    2.0037e-05    2.57705e-07 2.29631e-05 3.04848e-06
      0.400979 0.000757782    5.56454e-06      1.33336e-07 6.396e-06 2.71911e-06
      0.412345 0.000758193    1.09164e-05    1.87369e-07 1.16263e-05 2.43347e-06
      0.42371 0.000758615     1.3823e-05    2.1157e-07 1.49897e-05 2.18475e-06
      0.435074 0.000759049    5.85682e-06    1.3669e-07 5.8925e-06 1.96738e-06
      0.446437 0.000759493     4.04303e-06    1.14208e-07 3.45343e-06 1.77673e-06
      0.457799 0.000759949    7.40615e-06    1.53745e-07 7.06616e-06 1.60894e-06
       0.4649 0.00076024    6.56573e-06    7.24209e-08 6.33432e-06 1.51421e-06
      0.476261 0.000760714     2.3004e-06    4.1948e-08 1.98996e-06 1.37699e-06
      0.487621 0.000761199    1.90608e-06    3.82458e-08 1.57398e-06 1.25523e-06
      0.49898 0.000761694    3.08152e-06    4.83506e-08 3.01155e-06 1.1469e-06
      0.510338 0.000762202    1.87371e-06    3.79812e-08 1.65498e-06 1.05027e-06
      0.521695 0.00076272    5.63896e-07    2.26878e-08 4.46812e-07 9.6384e-07
      0.533051 0.000763249    1.1845e-06    3.0857e-08 1.12252e-06 8.86355e-07
      0.544406 0.000763789    1.26304e-06    3.16686e-08 1.1414e-06 8.16724e-07
      0.55576 0.00076434    4.4886e-07    2.05375e-08 3.26481e-07 7.5401e-07
      0.567113 0.000764901    3.73655e-07    1.86391e-08 3.0724e-07 6.97395e-07
      0.574208 0.000765258    6.14205e-07     1.45636e-08 5.32792e-07  6.6481e-07
      0.585559 0.000765838    5.65676e-07    1.30794e-08 4.53209e-07 6.16677e-07
      0.596909 0.000766428    1.37431e-07    8.50934e-09 1.17428e-07 5.73002e-07
      0.608258 0.000767029    1.81454e-07    9.03174e-09  1.59588e-07 5.33299e-07
      0.619605  0.000767641    3.32922e-07     1.07794e-08 2.52091e-07 4.97143e-07
      0.630952 0.000768264    1.4624e-07    8.4887e-09 1.18026e-07 4.6416e-07
      0.642297 0.000768897     3.78274e-08    6.79982e-09 5.10119e-08 4.3402e-07
      0.653641 0.000769541    1.40923e-07    8.31477e-09    1.11045e-07 4.06435e-07
      0.664983  0.000770196    1.01046e-07    7.88353e-09 9.59323e-08 3.81149e-07
      0.676325 0.000770861    1.58611e-08    6.43878e-09 3.85029e-08 3.57936e-07
      0.687665 0.000771537     6.11006e-08    7.10095e-09 4.70865e-08  3.36595e-07
       0.699003 0.000772224    6.23623e-08    7.10715e-09 6.27276e-08 3.16948e-07
      0.71034 0.000772921    2.36562e-08     6.40672e-09 4.02425e-08 2.98835e-07
      0.721676 0.000773628    1.04087e-08    6.14912e-09 2.95257e-08 2.82116e-07
      0.733011 0.000774346    2.68779e-08    6.50839e-09 3.9444e-08 2.66662e-07
      0.744344 0.000775074    1.20083e-08    6.29982e-09 3.70458e-08   2.52362e-07
      0.755675  0.000775813    7.36729e-09    6.1952e-09  2.80363e-08 2.39113e-07
      0.767006 0.000776562    1.20534e-08    6.15267e-09 2.942e-08 2.26823e-07
      0.778334 0.000777321    6.19559e-09    6.16892e-09 3.18663e-08 2.15411e-07
      0.789661 0.000778091    9.0796e-09    6.14868e-09 2.8719e-08 2.05363e-07