Folder: Nafion/Fits/X-Ray/Base

Note: Fits/X-Ray/Base/R1XR_substrate-err.json
{
  "Permalloy interface": {
    "best": 6.701405964165871,
    "index": 8,
    "integer": false,
    "label": "Permalloy interface",
    "mean": 6.7025234640174345,
    "median": 6.70240297122951,
    "p68": [
      6.689810373997692,
      6.7150125340559805
    ],
    "p68_range": [
      6.689810373997692,
      6.7150125340559805
    ],
    "p95": [
      6.678066941142199,
      6.727022684100622
    ],
    "p95_range": [
      6.678066941142199,
      6.727022684100622
    ],
    "std": 0.012486531826915287
  },
  "Permalloy irho": {
    "best": 0.6011071106877471,
    "index": 9,
    "integer": false,
    "label": "Permalloy irho",
    "mean": 0.5356865488360767,
    "median": 0.5878298426366324,
    "p68": [
      0.37542643357555694,
      0.7696681222428989
    ],
    "p68_range": [
      0.37542643357555694,
      0.7696681222428989
    ],
    "p95": [
      -0.5590276960018327,
      0.9212403804065605
    ],
    "p95_range": [
      -0.5590276960018327,
      0.9212403804065605
    ],
    "std": 0.3091444645762681
  },
  "Permalloy rho": {
    "best": 67.21294316831639,
    "index": 10,
    "integer": false,
    "label": "Permalloy rho",
    "mean": 67.10375690098336,
    "median": 67.10350685001315,
    "p68": [
      66.94135199787313,
      67.2719582357284
    ],
    "p68_range": [
      66.94135199787313,
      67.2719582357284
    ],
    "p95": [
      66.78507407741775,
      67.42414625091943
    ],
    "p95_range": [
      66.78507407741775,
      67.42414625091943
    ],
    "std": 0.1617671788980375
  },
  "Permalloy thickness": {
    "best": 107.90131333854275,
    "index": 11,
    "integer": false,
    "label": "Permalloy thickness",
    "mean": 107.88861226236034,
    "median": 107.89201814040426,
    "p68": [
      107.85006818517054,
      107.92976677654305
    ],
    "p68_range": [
      107.85006818517054,
      107.92976677654305
    ],
    "p95": [
      107.78587882409829,
      107.96164401916329
    ],
    "p95_range": [
      107.78587882409829,
      107.96164401916329
    ],
    "std": 0.04265062582852594
  },
  "Pt interface": {
    "best": 3.6610778843493774,
    "index": 12,
    "integer": false,
    "label": "Pt interface",
    "mean": 3.660918268053818,
    "median": 3.6609236391453344,
    "p68": [
      3.6590816925924257,
      3.662718548735053
    ],
    "p68_range": [
      3.6590816925924257,
      3.662718548735053
    ],
    "p95": [
      3.6573168406321943,
      3.66454064869932
    ],
    "p95_range": [
      3.6573168406321943,
      3.66454064869932
    ],
    "std": 0.001830815349163021
  },
  "Pt irho": {
    "best": 8.449969121310142,
    "index": 13,
    "integer": false,
    "label": "Pt irho",
    "mean": 8.448698513251065,
    "median": 8.449327331796175,
    "p68": [
      8.446778259537242,
      8.45057237847672
    ],
    "p68_range": [
   

Note: Fits/X-Ray/Base/R1XR_substrate-expt.json
{"type": "Experiment", "sample": {"type": "Stack", "layers": [{"name": "Silicon", "type": "Slab", "thickness": {"type": "Parameter", "name": "Silicon thickness", "value": 0.0, "fixed": true, "fittable": true, "bounds": {"type": "Bounded", "limits": [0.0, 100.0]}}, "interface": {"type": "Parameter", "name": "Silicon interface", "value": 18.41791272136459, "fixed": false, "fittable": true, "bounds": {"type": "Bounded", "limits": [8.65, 28.65]}}, "material": {"type": "SLD", "name": "Silicon", "rho": {"type": "Parameter", "name": "Silicon rho", "value": 20.07, "fixed": true, "fittable": true, "bounds": {"type": "Bounded", "limits": [19.07, 21.07]}}, "irho": {"type": "Parameter", "name": "Silicon irho", "value": 0.458, "fixed": true, "fittable": true, "bounds": {"type": "Bounded", "limits": [-0.542, 1.458]}}}}, {"name": "SiOx", "type": "Slab", "thickness": {"type": "Parameter", "name": "SiOx thickness", "value": 36.96302433019369, "fixed": false, "fittable": true, "bounds": {"type": "Bounded", "limits": [0.0, 140.55]}}, "interface": {"type": "Parameter", "name": "SiOx interface", "value": 3.2623930393881855, "fixed": false, "fittable": true, "bounds": {"type": "Bounded", "limits": [0.0, 13.224]}}, "material": {"type": "SLD", "name": "SiOx", "rho": {"type": "Parameter", "name": "SiOx rho", "value": 33.38519851941621, "fixed": false, "fittable": true, "bounds": {"type": "Bounded", "limits": [32.94, 34.94]}}, "irho": {"type": "Parameter", "name": "SiOx irho", "value": 7.8524714450783435, "fixed": false, "fittable": true, "bounds": {"type": "Bounded", "limits": [5.871, 7.871]}}}}, {"name": "Permalloy", "type": "Slab", "thickness": {"type": "Parameter", "name": "Permalloy thickness", "value": 107.91586611237392, "fixed": false, "fittable": true, "bounds": {"type": "Bounded", "limits": [8.0, 208.0]}}, "interface": {"type": "Parameter", "name": "Permalloy interface", "value": 6.711128597183049, "fixed": false, "fittable": true, "bounds": {"type": "Bounded", "limits": [0.0, 16.751]}}, "material": {"type": "SLD", "name": "Permalloy", "rho": {"type": "Parameter", "name": "Permalloy rho", "value": 67.01339329753687, "fixed": false, "fittable": true, "bounds": {"type": "Bounded", "limits": [65.49, 67.49]}}, "irho": {"type": "Parameter", "name": "Permalloy irho", "value": 0.7285637737911461, "fixed": false, "fittable": true, "bounds": {"type": "Bounded", "limits": [-1.0, 1.0]}}}}, {"name": "Pt", "type": "Slab", "thickness": {"type": "Parameter", "name": "Pt thickness", "value": 49.54135384303526, "fixed": false, "fittable": true, "bounds": {"type": "Bounded", "limits": [0.0, 149.49]}}, "interface": {"type": "Parameter", "name": "Pt interface", "value": 3.6602525809660498, "fixed": false, "fittable": true, "bounds": {"type": "Bounded", "limits": [0.0, 13.657]}}, "material": {"type": "SLD", "name": "Pt", "rho": {"type": "Parameter", "name": "Pt rho", "value": 134.5395342087413, "fixed": false, "fittable": true, "bounds": {"type": "Bounded", "limits": [132.9, 134.9]}

Note: README.md
# Nafion
This repository contains the data, fits, and code used to determine the structure of Nafion at the surface of a platinum electrode.

# Structure
The repository is organized into five subrepositories that contain:

1. **Analysis-** summary tables and a presentation of the results.
2. **Figures-** PDFs of the best fit profiles and reflectivity.
3. **Fits-** the Refl1D output files for each fit,
4. **Refl Files-** raw Refl files from the data cleaning and reduction step.
5. **Scripts-** Python fitting scripts used in conjunction with Refl1D.

The **Analysis** folder is further divided into folders named after the experimental conditions, and an additional **Active** folder that contains the current best fit models.

File: R1XR_substrate-refl.dat
# intensity: 1.02194
# background: 0
#           Q (1/A)             dQ (1/A)                    R                   dR               theory              fresnel
     0.0483642 0.000750703       0.951435     0.00501004    0.920359   0.0188996
      0.0540541 0.000750729       0.891643     0.00477517    0.894096   0.011434
     0.0597439 0.000750758       0.797485     0.00440218    0.833647    0.00704441
     0.0654336 0.00075079       0.611078     0.00364825    0.670061  0.00461275
     0.0711234 0.000750825        0.478614      0.00309314    0.469536  0.00316241
     0.0768131 0.000750863       0.459408     0.0030107    0.444729   0.00224784
     0.0825028 0.000750903       0.407801     0.00278597    0.407154  0.00164531
     0.0881924 0.000750947       0.315984     0.00237106    0.318756  0.00123399
     0.093882 0.000750993       0.203718     0.00182082    0.212549 0.000944787
     0.0995715 0.000751043       0.126109     0.00138567    0.12953 0.000736289
      0.105261 0.000751095       0.0864528     0.00112693   0.0873663 0.000582712
      0.11095 0.00075115      0.0717636     0.00101977    0.0701612 0.000467452
      0.11664 0.000751208      0.056803    0.000900912    0.0561717 0.000379516
      0.122329  0.000751269      0.0366782    0.000717022   0.037807  0.000311441
      0.128018 0.000751333      0.0191642    0.000513886   0.0193456 0.000258051
      0.133708 0.0007514       0.00715996    4.06431e-05  0.00719989 0.000215684
      0.139397 0.00075147      0.00323263    2.39623e-05  0.00299228 0.000181706
      0.145086 0.000751542      0.00369498    2.6159e-05  0.00336422 0.000154192
      0.150775 0.000751618     0.00441552    2.93399e-05  0.00413182 0.000131715
      0.156464  0.000751696     0.00376296    2.64656e-05  0.00348628 0.000113203
      0.162153 0.000751777      0.00229319    1.95261e-05  0.00208384 9.7844e-05
      0.167841 0.000751861     0.00142039    1.48132e-05  0.00132168 8.50121e-05
      0.17353 0.000751949     0.00180153    1.69586e-05  0.00178105 7.4223e-05
      0.179219 0.000752038     0.00289959    2.24921e-05  0.00290111 6.50974e-05
      0.184907 0.000752131      0.00375126      2.6414e-05   0.00368989 5.73361e-05
      0.190596 0.000752227     0.00367332    2.60639e-05  0.00357875 5.07008e-05
      0.196284 0.000752326     0.00285421    2.22767e-05  0.00273369  4.50005e-05
      0.201972 0.000752427      0.0018165    1.70415e-05  0.0017615 4.00812e-05
      0.20766  0.000752531      0.00119982    1.34865e-05  0.00118501 3.58176e-05
      0.213348 0.000752639     0.00109143     6.38196e-06  0.00111184 3.21073e-05
       0.219036 0.000752749     0.00125787    7.44613e-06  0.00127755 2.88663e-05
      0.224724 0.000752862     0.00132416    7.71661e-06  0.00133512   2.60249e-05
      0.230412 0.000752978       0.00113446    6.93603e-06  0.00112219 2.35253e-05
      0.2361  0.000753096    0.000743413     5.2542e-06 0.000726778 2.13193e-05
      0.241787 0.000753218    0.000363751    3.41239e-06 0.000361006 1.93663e-05
      0.247474 0.000753342    0.000174183    2.26555e-06 0.000180577 1.76323e-05
      0.253162 0.00075347     0.000172904    2.25594e-06 0.000189358 1.60885e-05
      0.258849 0.0007536    0.000256498     2.79959e-06  0.000274182  1.47102e-05
      0.264536  0.000753733     0.000299363    3.05329e-06 0.000312683   1.34766e-05
       0.270223 0.000753869    0.000248255    2.7485e-06 0.00025998 1.23699e-05
       0.27591 0.000754008    0.00014367    2.0428e-06 0.000158681 1.13746e-05
      0.281596  0.00075415    7.62973e-05    1.46707e-06 8.42049e-05 1.04776e-05
      0.287283 0.000754294    6.87165e-05    1.38989e-06 7.979e-05 9.66744e-06
      0.292969  0.000754442     0.000122563    1.87778e-06 0.000129936 8.93418e-06
      0.298655 0.000754592      0.000173893    2.26371e-06 0.000182614 8.26923e-06
      0.304341  0.000754745    0.000186584    2.35136e-06 0.000193548 7.66509e-06
      0.310027 0.000754901    0.000150859    2.09721e-06 0.000156117 7.11519e-06
      0.315713 0.00075506    9.86801e-05    1.67677e-06 9.86045e-05 6.6138e-06
      0.321398 0.000755221    5.70398e-05    1.26513e-06 5.74815e-05 6.15585e-06
      0.327084   0.000755386    5.10703e-05    1.1973e-06 5.04311e-05 5.73691e-06
      0.332769 0.000755553    6.92978e-05     1.3973e-06 6.80437e-05 5.35305e-06
      0.338454 0.000755723    8.81335e-05    1.58111e-06 8.61047e-05 5.0008e-06
      0.344139 0.000755896    8.72089e-05    1.57221e-06 8.56035e-05 4.67709e-06
      0.349824 0.000756072    6.1544e-05    1.31331e-06 6.49113e-05 4.37918e-06
      0.355509 0.000756251    3.63711e-05    3.42188e-07 3.73864e-05 4.10477e-06
      0.366877 0.000756617    1.55533e-05     2.25575e-07 1.59616e-05 3.61746e-06
      0.378245 0.000756994    2.98107e-05     3.20094e-07 3.17611e-05 3.20034e-06
      0.389613 0.000757383    2.0037e-05    2.57705e-07 2.34565e-05 2.8417e-06
      0.400979 0.000757782    5.56454e-06      1.33336e-07 6.75667e-06 2.53197e-06
      0.412345 0.000758193    1.09164e-05    1.87369e-07  1.18999e-05 2.26335e-06
      0.42371 0.000758615     1.3823e-05    2.1157e-07 1.52684e-05 2.02946e-06
      0.435074 0.000759049    5.85682e-06    1.3669e-07 6.08619e-06 1.82505e-06
      0.446437 0.000759493     4.04303e-06    1.14208e-07 3.56176e-06 1.64576e-06
      0.457799 0.000759949    7.40615e-06    1.53745e-07 7.22549e-06 1.48798e-06
       0.4649 0.00076024    6.56573e-06    7.24209e-08 6.50817e-06 1.3989e-06
      0.476261 0.000760714     2.3004e-06    4.1948e-08 2.08295e-06 1.26986e-06
      0.487621 0.000761199    1.90608e-06    3.82458e-08 1.63396e-06 1.15535e-06
      0.49898 0.000761694    3.08152e-06    4.83506e-08 3.12742e-06 1.05348e-06
      0.510338 0.000762202    1.87371e-06    3.79812e-08  1.74003e-06 9.62606e-07
      0.521695 0.00076272    5.63896e-07    2.26878e-08 4.62101e-07 8.81332e-07
      0.533051 0.000763249    1.1845e-06    3.0857e-08 1.1571e-06 8.08466e-07
      0.544406 0.000763789    1.26304e-06    3.16686e-08 1.19376e-06 7.42986e-07
      0.55576 0.00076434    4.4886e-07    2.05375e-08 3.3356e-07   6.84009e-07
      0.567113 0.000764901    3.73655e-07    1.86391e-08 2.99624e-07 6.30769e-07
      0.574208 0.000765258    6.14205e-07     1.45636e-08 5.40837e-07 6.00127e-07
      0.585559 0.000765838    5.65676e-07    1.30794e-08 4.66319e-07 5.54863e-07
      0.596909 0.000766428    1.37431e-07    8.50934e-09 1.03927e-07  5.13792e-07
      0.608258 0.000767029    1.81454e-07    9.03174e-09 1.43448e-07    4.76456e-07
      0.619605  0.000767641    3.32922e-07     1.07794e-08 2.47996e-07 4.42455e-07
      0.630952 0.000768264    1.4624e-07    8.4887e-09 1.04561e-07 4.11437e-07
      0.642297 0.000768897     3.78274e-08    6.79982e-09 2.72645e-08 3.83094e-07
      0.653641 0.000769541    1.40923e-07    8.31477e-09 9.31508e-08  3.57154e-07
      0.664983  0.000770196    1.01046e-07    7.88353e-09 7.9198e-08  3.33375e-07
      0.676325 0.000770861    1.58611e-08    6.43878e-09 1.43927e-08 3.11546e-07
      0.687665 0.000771537     6.11006e-08    7.10095e-09 2.25231e-08 2.91477e-07
       0.699003 0.000772224    6.23623e-08    7.10715e-09 4.1305e-08 2.73001e-07
      0.71034 0.000772921    2.36562e-08     6.40672e-09 1.64071e-08 2.55968e-07
      0.721676 0.000773628    1.04087e-08    6.14912e-09 3.25839e-09 2.40245e-07
      0.733011 0.000774346    2.68779e-08    6.50839e-09  1.46351e-08 2.25713e-07
      0.744344 0.000775074    1.20083e-08    6.29982e-09 1.24904e-08 2.12265e-07
      0.755675  0.000775813    7.36729e-09    6.1952e-09 1.81845e-09 1.99805e-07
      0.767006 0.000776562    1.20534e-08    6.15267e-09 3.13105e-09  1.88249e-07
      0.778334 0.000777321    6.19559e-09    6.16892e-09 6.2613e-09 1.77517e-07
      0.789661 0.000778091    9.0796e-09    6.14868e-09 2.65057e-09 1.68068e-07